{
  "resourceType" : "Bundle",
  "id" : "AllConsentsForDomain-response-example-1",
  "type" : "collection",
  "entry" : [{
    "fullUrl" : "urn:uuid:dfd5edc6-3a8a-4796-a9bb-f9572cf15c96",
    "resource" : {
      "resourceType" : "QuestionnaireResponse",
      "id" : "dfd5edc6-3a8a-4796-a9bb-f9572cf15c96",
      "meta" : {
        "lastUpdated" : "2021-05-19T17:50:23.000+02:00",
        "profile" : ["http://fhir.de/ConsentManagement/StructureDefinition/QuestionnaireResponse"]
      },
      "language" : "de",
      "text" : {
        "status" : "generated",
        "div" : "<div xmlns=\"http://www.w3.org/1999/xhtml\" xml:lang=\"de\" lang=\"de\"><a name=\"QuestionnaireResponse_dfd5edc6-3a8a-4796-a9bb-f9572cf15c96\"> </a><p class=\"res-header-id\"><b>Generated Narrative: QuestionnaireResponse dfd5edc6-3a8a-4796-a9bb-f9572cf15c96</b></p><a name=\"dfd5edc6-3a8a-4796-a9bb-f9572cf15c96\"> </a><a name=\"hcdfd5edc6-3a8a-4796-a9bb-f9572cf15c96\"> </a><div style=\"display: inline-block; background-color: #d9e0e7; padding: 6px; margin: 4px; border: 1px solid #8da1b4; border-radius: 5px; line-height: 60%\"><p style=\"margin-bottom: 0px\">Last updated: 2021-05-19 17:50:23+0200; Language: de</p><p style=\"margin-bottom: 0px\">Profile: <a href=\"https://simplifier.net/resolve?scope=de.einwilligungsmanagement@2.0.2&amp;canonical=http://fhir.de/ConsentManagement/StructureDefinition/QuestionnaireResponse\">Consent Management QuestionnaireResponse</a></p></div><table border=\"1\" cellpadding=\"0\" cellspacing=\"0\" style=\"border: 1px #F0F0F0 solid; font-size: 11px; font-family: verdana; vertical-align: top;\"><tr style=\"border: 2px #F0F0F0 solid; font-size: 11px; font-family: verdana; vertical-align: top\"><th style=\"vertical-align: top; text-align : var(--ig-left,left); background-color: white; border: 1px #F0F0F0 solid; padding:0px 4px 0px 4px; padding-top: 3px; padding-bottom: 3px\" class=\"hierarchy\"><a href=\"https://hl7.org/fhir/R4/formats.html#table\" title=\"The linkID for the item\">LinkID</a></th><th style=\"vertical-align: top; text-align : var(--ig-left,left); background-color: white; border: 1px #F0F0F0 solid; padding:0px 4px 0px 4px; padding-top: 3px; padding-bottom: 3px\" class=\"hierarchy\"><a href=\"https://hl7.org/fhir/R4/formats.html#table\" title=\"Text for the item\">Text</a></th><th style=\"vertical-align: top; text-align : var(--ig-left,left); background-color: white; border: 1px #F0F0F0 solid; padding:0px 4px 0px 4px; padding-top: 3px; padding-bottom: 3px\" class=\"hierarchy\"><a href=\"https://hl7.org/fhir/R4/formats.html#table\" title=\"Minimum and Maximum # of times the item can appear in the instance\">Definition</a></th><th style=\"vertical-align: top; text-align : var(--ig-left,left); background-color: white; border: 1px #F0F0F0 solid; padding:0px 4px 0px 4px; padding-top: 3px; padding-bottom: 3px\" class=\"hierarchy\"><a href=\"https://hl7.org/fhir/R4/formats.html#table\" title=\"The type of the item\">Answer</a><span style=\"float: right\"><a href=\"https://hl7.org/fhir/R4/formats.html#table\" title=\"Legend for this format\"><img src=\"data:image/png;base64,\" alt=\"doco\" style=\"background-color: inherit\"/></a></span></th></tr><tr style=\"border: 1px #F0F0F0 solid; padding:0px; vertical-align: top; background-color: white\"><td style=\"vertical-align: top; text-align : var(--ig-left,left); background-color: white; border: 1px #F0F0F0 solid; padding:0px 4px 0px 4px; white-space: nowrap; background-image: url(tbl_bck1.png)\" class=\"hierarchy\"><img src=\"tbl_spacer.png\" alt=\".\" style=\"background-color: inherit\" class=\"hierarchy\"/><img src=\"icon_q_root.gif\" alt=\".\" style=\"background-color: white; background-color: inherit\" title=\"QuestionnaireResponseRoot\" class=\"hierarchy\"/> dfd5edc6-3a8a-4796-a9bb-f9572cf15c96</td><td style=\"vertical-align: top; text-align : var(--ig-left,left); background-color: white; border: 1px #F0F0F0 solid; padding:0px 4px 0px 4px\" class=\"hierarchy\"></td><td style=\"vertical-align: top; text-align : var(--ig-left,left); background-color: white; border: 1px #F0F0F0 solid; padding:0px 4px 0px 4px\" class=\"hierarchy\"></td><td style=\"vertical-align: top; text-align : var(--ig-left,left); background-color: white; border: 1px #F0F0F0 solid; padding:0px 4px 0px 4px\" class=\"hierarchy\">Questionnaire:https://ths-greifswald.de/fhir/gics/QuestionnaireComposed/MII/Patienteneinwilligung+MII|1.6.f</td></tr>\r\n<tr style=\"border: 1px #F0F0F0 solid; padding:0px; vertical-align: top; background-color: #F7F7F7\"><td style=\"vertical-align: top; text-align : var(--ig-left,left); background-color: #F7F7F7; border: 1px #F0F0F0 solid; padding:0px 4px 0px 4px; white-space: nowrap; background-image: url(tbl_bck10.png)\" class=\"hierarchy\"><img src=\"tbl_spacer.png\" alt=\".\" style=\"background-color: inherit\" class=\"hierarchy\"/><img src=\"tbl_vjoin.png\" alt=\".\" style=\"background-color: inherit\" class=\"hierarchy\"/><img src=\"icon-q-string.png\" alt=\".\" style=\"background-color: #F7F7F7; background-color: inherit\" title=\"Item\" class=\"hierarchy\"/> PATDAT_erheben_speichern_nutzen|1.6</td><td style=\"vertical-align: top; text-align : var(--ig-left,left); background-color: #F7F7F7; border: 1px #F0F0F0 solid; padding:0px 4px 0px 4px\" class=\"hierarchy\"></td><td style=\"vertical-align: top; text-align : var(--ig-left,left); background-color: #F7F7F7; border: 1px #F0F0F0 solid; padding:0px 4px 0px 4px\" class=\"hierarchy\"/><td style=\"vertical-align: top; text-align : var(--ig-left,left); background-color: #F7F7F7; border: 1px #F0F0F0 solid; padding:0px 4px 0px 4px\" class=\"hierarchy\"><span><span><a href=\"https://simplifier.net/resolve?scope=de.medizininformatikinitiative.kerndatensatz.consent@2025.0.4&amp;canonical=urn:oid:2.16.840.1.113883.3.1937.777.24.5.2#2.16.840.1.113883.3.1937.777.24.5.2--20210423105554-2.4616.46840.461.46113883.463.461937.46777.4624.465.462.461\">MII Consent: Answer CodeSystem: 2.16.840.1.113883.3.1937.777.24.5.2.1</a> (gültig)</span></span></td></tr>\r\n<tr style=\"border: 1px #F0F0F0 solid; padding:0px; vertical-align: top; background-color: white\"><td style=\"vertical-align: top; text-align : var(--ig-left,left); background-color: white; border: 1px #F0F0F0 solid; padding:0px 4px 0px 4px; white-space: nowrap; background-image: url(tbl_bck10.png)\" class=\"hierarchy\"><img src=\"tbl_spacer.png\" alt=\".\" style=\"background-color: inherit\" class=\"hierarchy\"/><img src=\"tbl_vjoin.png\" alt=\".\" style=\"background-color: inherit\" class=\"hierarchy\"/><img src=\"icon-q-string.png\" alt=\".\" style=\"background-color: white; background-color: inherit\" title=\"Item\" class=\"hierarchy\"/> KKDAT_retrospektiv_uebertragen_speichern_nutzen|1.6</td><td style=\"vertical-align: top; text-align : var(--ig-left,left); background-color: white; border: 1px #F0F0F0 solid; padding:0px 4px 0px 4px\" class=\"hierarchy\"></td><td style=\"vertical-align: top; text-align : var(--ig-left,left); background-color: white; border: 1px #F0F0F0 solid; padding:0px 4px 0px 4px\" class=\"hierarchy\"/><td style=\"vertical-align: top; text-align : var(--ig-left,left); background-color: white; border: 1px #F0F0F0 solid; padding:0px 4px 0px 4px\" class=\"hierarchy\"><span><span><a href=\"https://simplifier.net/resolve?scope=de.medizininformatikinitiative.kerndatensatz.consent@2025.0.4&amp;canonical=urn:oid:2.16.840.1.113883.3.1937.777.24.5.2#2.16.840.1.113883.3.1937.777.24.5.2--20210423105554-2.4616.46840.461.46113883.463.461937.46777.4624.465.462.462\">MII Consent: Answer CodeSystem: 2.16.840.1.113883.3.1937.777.24.5.2.2</a> (ungültig)</span></span></td></tr>\r\n<tr style=\"border: 1px #F0F0F0 solid; padding:0px; vertical-align: top; background-color: #F7F7F7\"><td style=\"vertical-align: top; text-align : var(--ig-left,left); background-color: #F7F7F7; border: 1px #F0F0F0 solid; padding:0px 4px 0px 4px; white-space: nowrap; background-image: url(tbl_bck10.png)\" class=\"hierarchy\"><img src=\"tbl_spacer.png\" alt=\".\" style=\"background-color: inherit\" class=\"hierarchy\"/><img src=\"tbl_vjoin.png\" alt=\".\" style=\"background-color: inherit\" class=\"hierarchy\"/><img src=\"icon-q-string.png\" alt=\".\" style=\"background-color: #F7F7F7; background-color: inherit\" title=\"Item\" class=\"hierarchy\"/> KKDAT_prospektiv_uebertragen_speichern_nutzen|1.6</td><td style=\"vertical-align: top; text-align : var(--ig-left,left); background-color: #F7F7F7; border: 1px #F0F0F0 solid; padding:0px 4px 0px 4px\" class=\"hierarchy\"></td><td style=\"vertical-align: top; text-align : var(--ig-left,left); background-color: #F7F7F7; border: 1px #F0F0F0 solid; padding:0px 4px 0px 4px\" class=\"hierarchy\"/><td style=\"vertical-align: top; text-align : var(--ig-left,left); background-color: #F7F7F7; border: 1px #F0F0F0 solid; padding:0px 4px 0px 4px\" class=\"hierarchy\"><span><span><a href=\"https://simplifier.net/resolve?scope=de.medizininformatikinitiative.kerndatensatz.consent@2025.0.4&amp;canonical=urn:oid:2.16.840.1.113883.3.1937.777.24.5.2#2.16.840.1.113883.3.1937.777.24.5.2--20210423105554-2.4616.46840.461.46113883.463.461937.46777.4624.465.462.462\">MII Consent: Answer CodeSystem: 2.16.840.1.113883.3.1937.777.24.5.2.2</a> (ungültig)</span></span></td></tr>\r\n<tr style=\"border: 1px #F0F0F0 solid; padding:0px; vertical-align: top; background-color: white\"><td style=\"vertical-align: top; text-align : var(--ig-left,left); background-color: white; border: 1px #F0F0F0 solid; padding:0px 4px 0px 4px; white-space: nowrap; background-image: url(tbl_bck10.png)\" class=\"hierarchy\"><img src=\"tbl_spacer.png\" alt=\".\" style=\"background-color: inherit\" class=\"hierarchy\"/><img src=\"tbl_vjoin.png\" alt=\".\" style=\"background-color: inherit\" class=\"hierarchy\"/><img src=\"icon-q-string.png\" alt=\".\" style=\"background-color: white; background-color: inherit\" title=\"Item\" class=\"hierarchy\"/> BIOMAT_erheben_lagern_nutzen|1.6</td><td style=\"vertical-align: top; text-align : var(--ig-left,left); background-color: white; border: 1px #F0F0F0 solid; padding:0px 4px 0px 4px\" class=\"hierarchy\"></td><td style=\"vertical-align: top; text-align : var(--ig-left,left); background-color: white; border: 1px #F0F0F0 solid; padding:0px 4px 0px 4px\" class=\"hierarchy\"/><td style=\"vertical-align: top; text-align : var(--ig-left,left); background-color: white; border: 1px #F0F0F0 solid; padding:0px 4px 0px 4px\" class=\"hierarchy\"><span><span><a href=\"https://simplifier.net/resolve?scope=de.medizininformatikinitiative.kerndatensatz.consent@2025.0.4&amp;canonical=urn:oid:2.16.840.1.113883.3.1937.777.24.5.2#2.16.840.1.113883.3.1937.777.24.5.2--20210423105554-2.4616.46840.461.46113883.463.461937.46777.4624.465.462.462\">MII Consent: Answer CodeSystem: 2.16.840.1.113883.3.1937.777.24.5.2.2</a> (ungültig)</span></span></td></tr>\r\n<tr style=\"border: 1px #F0F0F0 solid; padding:0px; vertical-align: top; background-color: #F7F7F7\"><td style=\"vertical-align: top; text-align : var(--ig-left,left); background-color: #F7F7F7; border: 1px #F0F0F0 solid; padding:0px 4px 0px 4px; white-space: nowrap; background-image: url(tbl_bck10.png)\" class=\"hierarchy\"><img src=\"tbl_spacer.png\" alt=\".\" style=\"background-color: inherit\" class=\"hierarchy\"/><img src=\"tbl_vjoin.png\" alt=\".\" style=\"background-color: inherit\" class=\"hierarchy\"/><img src=\"icon-q-string.png\" alt=\".\" style=\"background-color: #F7F7F7; background-color: inherit\" title=\"Item\" class=\"hierarchy\"/> BIOMAT_Zusatzentnahme|1.6</td><td style=\"vertical-align: top; text-align : var(--ig-left,left); background-color: #F7F7F7; border: 1px #F0F0F0 solid; padding:0px 4px 0px 4px\" class=\"hierarchy\"></td><td style=\"vertical-align: top; text-align : var(--ig-left,left); background-color: #F7F7F7; border: 1px #F0F0F0 solid; padding:0px 4px 0px 4px\" class=\"hierarchy\"/><td style=\"vertical-align: top; text-align : var(--ig-left,left); background-color: #F7F7F7; border: 1px #F0F0F0 solid; padding:0px 4px 0px 4px\" class=\"hierarchy\"><span><span><a href=\"https://simplifier.net/resolve?scope=de.medizininformatikinitiative.kerndatensatz.consent@2025.0.4&amp;canonical=urn:oid:2.16.840.1.113883.3.1937.777.24.5.2#2.16.840.1.113883.3.1937.777.24.5.2--20210423105554-2.4616.46840.461.46113883.463.461937.46777.4624.465.462.462\">MII Consent: Answer CodeSystem: 2.16.840.1.113883.3.1937.777.24.5.2.2</a> (ungültig)</span></span></td></tr>\r\n<tr style=\"border: 1px #F0F0F0 solid; padding:0px; vertical-align: top; background-color: white\"><td style=\"vertical-align: top; text-align : var(--ig-left,left); background-color: white; border: 1px #F0F0F0 solid; padding:0px 4px 0px 4px; white-space: nowrap; background-image: url(tbl_bck10.png)\" class=\"hierarchy\"><img src=\"tbl_spacer.png\" alt=\".\" style=\"background-color: inherit\" class=\"hierarchy\"/><img src=\"tbl_vjoin.png\" alt=\".\" style=\"background-color: inherit\" class=\"hierarchy\"/><img src=\"icon-q-string.png\" alt=\".\" style=\"background-color: white; background-color: inherit\" title=\"Item\" class=\"hierarchy\"/> Rekontaktierung_Ergaenzungen|1.6</td><td style=\"vertical-align: top; text-align : var(--ig-left,left); background-color: white; border: 1px #F0F0F0 solid; padding:0px 4px 0px 4px\" class=\"hierarchy\"></td><td style=\"vertical-align: top; text-align : var(--ig-left,left); background-color: white; border: 1px #F0F0F0 solid; padding:0px 4px 0px 4px\" class=\"hierarchy\"/><td style=\"vertical-align: top; text-align : var(--ig-left,left); background-color: white; border: 1px #F0F0F0 solid; padding:0px 4px 0px 4px\" class=\"hierarchy\"><span><span><a href=\"https://simplifier.net/resolve?scope=de.medizininformatikinitiative.kerndatensatz.consent@2025.0.4&amp;canonical=urn:oid:2.16.840.1.113883.3.1937.777.24.5.2#2.16.840.1.113883.3.1937.777.24.5.2--20210423105554-2.4616.46840.461.46113883.463.461937.46777.4624.465.462.461\">MII Consent: Answer CodeSystem: 2.16.840.1.113883.3.1937.777.24.5.2.1</a> (gültig)</span></span></td></tr>\r\n<tr style=\"border: 1px #F0F0F0 solid; padding:0px; vertical-align: top; background-color: #F7F7F7\"><td style=\"vertical-align: top; text-align : var(--ig-left,left); background-color: #F7F7F7; border: 1px #F0F0F0 solid; padding:0px 4px 0px 4px; white-space: nowrap; background-image: url(tbl_bck10.png)\" class=\"hierarchy\"><img src=\"tbl_spacer.png\" alt=\".\" style=\"background-color: inherit\" class=\"hierarchy\"/><img src=\"tbl_vjoin.png\" alt=\".\" style=\"background-color: inherit\" class=\"hierarchy\"/><img src=\"icon-q-string.png\" alt=\".\" style=\"background-color: #F7F7F7; background-color: inherit\" title=\"Item\" class=\"hierarchy\"/> Rekontaktierung_Zusatzbefund|1.6</td><td style=\"vertical-align: top; text-align : var(--ig-left,left); background-color: #F7F7F7; border: 1px #F0F0F0 solid; padding:0px 4px 0px 4px\" class=\"hierarchy\"></td><td style=\"vertical-align: top; text-align : var(--ig-left,left); background-color: #F7F7F7; border: 1px #F0F0F0 solid; padding:0px 4px 0px 4px\" class=\"hierarchy\"/><td style=\"vertical-align: top; text-align : var(--ig-left,left); background-color: #F7F7F7; border: 1px #F0F0F0 solid; padding:0px 4px 0px 4px\" class=\"hierarchy\"><span><span><a href=\"https://simplifier.net/resolve?scope=de.medizininformatikinitiative.kerndatensatz.consent@2025.0.4&amp;canonical=urn:oid:2.16.840.1.113883.3.1937.777.24.5.2#2.16.840.1.113883.3.1937.777.24.5.2--20210423105554-2.4616.46840.461.46113883.463.461937.46777.4624.465.462.461\">MII Consent: Answer CodeSystem: 2.16.840.1.113883.3.1937.777.24.5.2.1</a> (gültig)</span></span></td></tr>\r\n<tr style=\"border: 1px #F0F0F0 solid; padding:0px; vertical-align: top; background-color: white\"><td style=\"vertical-align: top; text-align : var(--ig-left,left); background-color: white; border: 1px #F0F0F0 solid; padding:0px 4px 0px 4px; white-space: nowrap; background-image: url(tbl_bck10.png)\" class=\"hierarchy\"><img src=\"tbl_spacer.png\" alt=\".\" style=\"background-color: inherit\" class=\"hierarchy\"/><img src=\"tbl_vjoin.png\" alt=\".\" style=\"background-color: inherit\" class=\"hierarchy\"/><img src=\"icon-q-string.png\" alt=\".\" style=\"background-color: white; background-color: inherit\" title=\"Item\" class=\"hierarchy\"/> Z1_GECCO83_Nutzung_NUM_CODEX|1.0</td><td style=\"vertical-align: top; text-align : var(--ig-left,left); background-color: white; border: 1px #F0F0F0 solid; padding:0px 4px 0px 4px\" class=\"hierarchy\"></td><td style=\"vertical-align: top; text-align : var(--ig-left,left); background-color: white; border: 1px #F0F0F0 solid; padding:0px 4px 0px 4px\" class=\"hierarchy\"/><td style=\"vertical-align: top; text-align : var(--ig-left,left); background-color: white; border: 1px #F0F0F0 solid; padding:0px 4px 0px 4px\" class=\"hierarchy\"><span><span><a href=\"https://simplifier.net/resolve?scope=de.medizininformatikinitiative.kerndatensatz.consent@2025.0.4&amp;canonical=urn:oid:2.16.840.1.113883.3.1937.777.24.5.2#2.16.840.1.113883.3.1937.777.24.5.2--20210423105554-2.4616.46840.461.46113883.463.461937.46777.4624.465.462.461\">MII Consent: Answer CodeSystem: 2.16.840.1.113883.3.1937.777.24.5.2.1</a> (gültig)</span></span></td></tr>\r\n<tr style=\"border: 1px #F0F0F0 solid; padding:0px; vertical-align: top; background-color: #F7F7F7\"><td style=\"vertical-align: top; text-align : var(--ig-left,left); background-color: #F7F7F7; border: 1px #F0F0F0 solid; padding:0px 4px 0px 4px; white-space: nowrap; background-image: url(tbl_bck00.png)\" class=\"hierarchy\"><img src=\"tbl_spacer.png\" alt=\".\" style=\"background-color: inherit\" class=\"hierarchy\"/><img src=\"tbl_vjoin_end.png\" alt=\".\" style=\"background-color: inherit\" class=\"hierarchy\"/><img src=\"icon-q-string.png\" alt=\".\" style=\"background-color: #F7F7F7; background-color: inherit\" title=\"Item\" class=\"hierarchy\"/> Z1_GECCO83_Weitergabe_NUM_CODEX_EU_DSGVO_nonkonform|1.0</td><td style=\"vertical-align: top; text-align : var(--ig-left,left); background-color: #F7F7F7; border: 1px #F0F0F0 solid; padding:0px 4px 0px 4px\" class=\"hierarchy\"></td><td style=\"vertical-align: top; text-align : var(--ig-left,left); background-color: #F7F7F7; border: 1px #F0F0F0 solid; padding:0px 4px 0px 4px\" class=\"hierarchy\"/><td style=\"vertical-align: top; text-align : var(--ig-left,left); background-color: #F7F7F7; border: 1px #F0F0F0 solid; padding:0px 4px 0px 4px\" class=\"hierarchy\"><span><span><a href=\"https://simplifier.net/resolve?scope=de.medizininformatikinitiative.kerndatensatz.consent@2025.0.4&amp;canonical=urn:oid:2.16.840.1.113883.3.1937.777.24.5.2#2.16.840.1.113883.3.1937.777.24.5.2--20210423105554-2.4616.46840.461.46113883.463.461937.46777.4624.465.462.462\">MII Consent: Answer CodeSystem: 2.16.840.1.113883.3.1937.777.24.5.2.2</a> (ungültig)</span></span></td></tr>\r\n<tr><td colspan=\"4\" class=\"hierarchy\"><br/><a href=\"https://hl7.org/fhir/R4/formats.html#table\" title=\"Legend for this format\"><img src=\"data:image/png;base64,\" alt=\"doco\" style=\"background-color: inherit\"/> Documentation for this format</a></td></tr></table></div>"
      },
      "questionnaire" : "https://ths-greifswald.de/fhir/gics/QuestionnaireComposed/MII/Patienteneinwilligung+MII|1.6.f",
      "status" : "completed",
      "subject" : {
        "reference" : "Patient/d4c9a2fe-0eea-4a84-899d-3dbd9dc5c7f1",
        "display" : "Pseudonym dic_1H51T"
      },
      "authored" : "2021-05-19T00:00:00+02:00",
      "author" : {
        "reference" : "Patient/d4c9a2fe-0eea-4a84-899d-3dbd9dc5c7f1",
        "display" : "Pseudonym dic_1H51T"
      },
      "source" : {
        "reference" : "Patient/d4c9a2fe-0eea-4a84-899d-3dbd9dc5c7f1",
        "display" : "Pseudonym dic_1H51T"
      },
      "item" : [{
        "linkId" : "PATDAT_erheben_speichern_nutzen|1.6",
        "answer" : [{
          "valueCoding" : {
            "system" : "urn:oid:2.16.840.1.113883.3.1937.777.24.5.2",
            "code" : "2.16.840.1.113883.3.1937.777.24.5.2.1",
            "display" : "gültig"
          }
        }]
      },
      {
        "linkId" : "KKDAT_retrospektiv_uebertragen_speichern_nutzen|1.6",
        "answer" : [{
          "valueCoding" : {
            "system" : "urn:oid:2.16.840.1.113883.3.1937.777.24.5.2",
            "code" : "2.16.840.1.113883.3.1937.777.24.5.2.2",
            "display" : "ungültig"
          }
        }]
      },
      {
        "linkId" : "KKDAT_prospektiv_uebertragen_speichern_nutzen|1.6",
        "answer" : [{
          "valueCoding" : {
            "system" : "urn:oid:2.16.840.1.113883.3.1937.777.24.5.2",
            "code" : "2.16.840.1.113883.3.1937.777.24.5.2.2",
            "display" : "ungültig"
          }
        }]
      },
      {
        "linkId" : "BIOMAT_erheben_lagern_nutzen|1.6",
        "answer" : [{
          "valueCoding" : {
            "system" : "urn:oid:2.16.840.1.113883.3.1937.777.24.5.2",
            "code" : "2.16.840.1.113883.3.1937.777.24.5.2.2",
            "display" : "ungültig"
          }
        }]
      },
      {
        "linkId" : "BIOMAT_Zusatzentnahme|1.6",
        "answer" : [{
          "valueCoding" : {
            "system" : "urn:oid:2.16.840.1.113883.3.1937.777.24.5.2",
            "code" : "2.16.840.1.113883.3.1937.777.24.5.2.2",
            "display" : "ungültig"
          }
        }]
      },
      {
        "linkId" : "Rekontaktierung_Ergaenzungen|1.6",
        "answer" : [{
          "valueCoding" : {
            "system" : "urn:oid:2.16.840.1.113883.3.1937.777.24.5.2",
            "code" : "2.16.840.1.113883.3.1937.777.24.5.2.1",
            "display" : "gültig"
          }
        }]
      },
      {
        "linkId" : "Rekontaktierung_Zusatzbefund|1.6",
        "answer" : [{
          "valueCoding" : {
            "system" : "urn:oid:2.16.840.1.113883.3.1937.777.24.5.2",
            "code" : "2.16.840.1.113883.3.1937.777.24.5.2.1",
            "display" : "gültig"
          }
        }]
      },
      {
        "linkId" : "Z1_GECCO83_Nutzung_NUM_CODEX|1.0",
        "answer" : [{
          "valueCoding" : {
            "system" : "urn:oid:2.16.840.1.113883.3.1937.777.24.5.2",
            "code" : "2.16.840.1.113883.3.1937.777.24.5.2.1",
            "display" : "gültig"
          }
        }]
      },
      {
        "linkId" : "Z1_GECCO83_Weitergabe_NUM_CODEX_EU_DSGVO_nonkonform|1.0",
        "answer" : [{
          "valueCoding" : {
            "system" : "urn:oid:2.16.840.1.113883.3.1937.777.24.5.2",
            "code" : "2.16.840.1.113883.3.1937.777.24.5.2.2",
            "display" : "ungültig"
          }
        }]
      }]
    }
  },
  {
    "fullUrl" : "urn:uuid:d72bc4dc-1f2b-4c5d-8f3c-51fe6a9a5d90",
    "resource" : {
      "resourceType" : "Consent",
      "id" : "d72bc4dc-1f2b-4c5d-8f3c-51fe6a9a5d90",
      "meta" : {
        "lastUpdated" : "2021-05-19T17:50:23.000+02:00",
        "profile" : ["https://ths-greifswald.de/fhir/StructureDefinition/gics/Consent",
        "http://fhir.de/ConsentManagement/StructureDefinition/Consent"]
      },
      "text" : {
        "status" : "extensions",
        "div" : "<div xmlns=\"http://www.w3.org/1999/xhtml\"><a name=\"Consent_d72bc4dc-1f2b-4c5d-8f3c-51fe6a9a5d90\"> </a><p class=\"res-header-id\"><b>Generated Narrative: Consent d72bc4dc-1f2b-4c5d-8f3c-51fe6a9a5d90</b></p><a name=\"d72bc4dc-1f2b-4c5d-8f3c-51fe6a9a5d90\"> </a><a name=\"hcd72bc4dc-1f2b-4c5d-8f3c-51fe6a9a5d90\"> </a><div style=\"display: inline-block; background-color: #d9e0e7; padding: 6px; margin: 4px; border: 1px solid #8da1b4; border-radius: 5px; line-height: 60%\"><p style=\"margin-bottom: 0px\">Last updated: 2021-05-19 17:50:23+0200</p><p style=\"margin-bottom: 0px\">Profiles: <a href=\"StructureDefinition-Consent.html\">Einwilligungsinformationen</a>, <a href=\"https://simplifier.net/resolve?scope=de.einwilligungsmanagement@2.0.2&amp;canonical=http://fhir.de/ConsentManagement/StructureDefinition/Consent\">Consent Management: Consent</a></p></div><blockquote><p><b>Consent Management Domain Reference</b></p><ul><li>domain: <a href=\"https://simplifier.net/resolve?scope=de.einwilligungsmanagement@2.0.2&amp;canonical=http://fhir.org/packages/de.einwilligungsmanagement/ResearchStudy/593d66f3-3654-4e8a-9524-3bcd78a363bb\">ResearchStudy/593d66f3-3654-4e8a-9524-3bcd78a363bb</a></li><li>status: <a href=\"http://hl7.org/fhir/R4/codesystem-publication-status.html#publication-status-active\">PublicationStatus: active</a> (Active)</li></ul></blockquote><p><b>status</b>: Active</p><p><b>scope</b>: <span title=\"Codes:{http://terminology.hl7.org/CodeSystem/consentscope research}\">Research</span></p><p><b>category</b>: <span title=\"Codes:{http://loinc.org 57016-8}\">Privacy policy acknowledgment Document</span>, <span title=\"Codes:{http://fhir.de/ConsentManagement/CodeSystem/ResultType document}\">Dokument</span></p><p><b>patient</b>: <a href=\"Bundle-AllConsentsForDomain-response-example-1.html#Patient_d4c9a2fe-0eea-4a84-899d-3dbd9dc5c7f1\">Pseudonym dic_1H51T</a></p><p><b>dateTime</b>: 2021-05-19 00:00:00+0200</p><p><b>organization</b>: MII</p><p><b>source</b>: <a href=\"Bundle-AllConsentsForDomain-response-example-1.html#QuestionnaireResponse_dfd5edc6-3a8a-4796-a9bb-f9572cf15c96\">Response to Questionnaire 'https://ths-greifswald.de/fhir/gics/QuestionnaireComposed/MII/Patienteneinwilligung+MII|1.6.f' about '-&gt;Pseudonym dic_1H51T'</a></p><h3>Policies</h3><table class=\"grid\"><tr><td style=\"display: none\">-</td><td><b>Uri</b></td></tr><tr><td style=\"display: none\">*</td><td><a href=\"https://simplifier.net/resolve?scope=de.einwilligungsmanagement@2.0.2&amp;canonical=urn:oid:2.16.840.1.113883.3.1937.777.24.2.184\">urn:oid:2.16.840.1.113883.3.1937.777.24.2.184</a></td></tr></table><blockquote><p><b>provision</b></p><p><b>type</b>: Opt Out</p><p><b>period</b>: 2021-05-19 17:50:22+0200 --&gt; 2051-05-19 17:50:23+0200</p><h3>Provisions</h3><table class=\"grid\"><tr><td style=\"display: none\">-</td><td><b>Type</b></td><td><b>Period</b></td><td><b>Code</b></td></tr><tr><td style=\"display: none\">*</td><td>Opt In</td><td>2021-05-19 17:50:22+0200 --&gt; 2051-05-19 17:50:23+0200</td><td><span title=\"Codes:{https://ths-greifswald.de/fhir/CodeSystem/gics/Policy IDAT_bereitstellen_EU_DSGVO_NIVEAU}\">Herausgabe identifizierender Daten (IDAT)[...]</span>, <span title=\"Codes:{urn:oid:2.16.840.1.113883.3.1937.777.24.5.3 2.16.840.1.113883.3.1937.777.24.5.3.5}\">IDAT bereitstellen EU DSGVO NIVEAU</span></td></tr><tr><td style=\"display: none\">*</td><td>Opt In</td><td>2021-05-19 17:50:22+0200 --&gt; 2051-05-19 17:50:23+0200</td><td><span title=\"Codes:{https://ths-greifswald.de/fhir/CodeSystem/gics/Policy IDAT_erheben}\">Erfassung neuer identifizierender Daten (IDAT)</span>, <span title=\"Codes:{urn:oid:2.16.840.1.113883.3.1937.777.24.5.3 2.16.840.1.113883.3.1937.777.24.5.3.2}\">IDAT erheben</span></td></tr><tr><td style=\"display: none\">*</td><td>Opt In</td><td>2021-05-19 17:50:22+0200 --&gt; 2051-05-19 17:50:23+0200</td><td><span title=\"Codes:{https://ths-greifswald.de/fhir/CodeSystem/gics/Policy IDAT_speichern_verarbeiten}\">Speicherung und Verarbeitung identifizierender Daten (IDAT)[...]</span>, <span title=\"Codes:{urn:oid:2.16.840.1.113883.3.1937.777.24.5.3 2.16.840.1.113883.3.1937.777.24.5.3.3}\">IDAT speichern, verarbeiten</span></td></tr><tr><td style=\"display: none\">*</td><td>Opt In</td><td>2021-05-19 17:50:22+0200 --&gt; 2051-05-19 17:50:23+0200</td><td><span title=\"Codes:{https://ths-greifswald.de/fhir/CodeSystem/gics/Policy IDAT_zusammenfuehren_Dritte}\">Zusammenführung identifizierender Daten (IDAT)[...]</span>, <span title=\"Codes:{urn:oid:2.16.840.1.113883.3.1937.777.24.5.3 2.16.840.1.113883.3.1937.777.24.5.3.4}\">IDAT zusammenfuehren Dritte</span></td></tr><tr><td style=\"display: none\">*</td><td>Opt In</td><td>2021-05-19 17:50:22+0200 --&gt; 2051-05-19 17:50:23+0200</td><td><span title=\"Codes:{https://ths-greifswald.de/fhir/CodeSystem/gics/Policy MDAT_erheben}\">Erfassung medizinischer Daten</span>, <span title=\"Codes:{urn:oid:2.16.840.1.113883.3.1937.777.24.5.3 2.16.840.1.113883.3.1937.777.24.5.3.6}\">MDAT erheben</span></td></tr><tr><td style=\"display: none\">*</td><td>Opt In</td><td>2021-05-19 17:50:22+0200 --&gt; 2051-05-19 17:50:23+0200</td><td><span title=\"Codes:{https://ths-greifswald.de/fhir/CodeSystem/gics/Policy MDAT_speichern_verarbeiten}\">Speicherung_Verarbeitung von medizinischen Daten[...]</span>, <span title=\"Codes:{urn:oid:2.16.840.1.113883.3.1937.777.24.5.3 2.16.840.1.113883.3.1937.777.24.5.3.7}\">MDAT speichern, verarbeiten</span></td></tr><tr><td style=\"display: none\">*</td><td>Opt In</td><td>2021-05-19 17:50:22+0200 --&gt; 2051-05-19 17:50:23+0200</td><td><span title=\"Codes:{https://ths-greifswald.de/fhir/CodeSystem/gics/Policy MDAT_wissenschaftlich_nutzen_EU_DSGVO_NIVEAU}\">Bereitstellung medizinischer Daten (MDAT)[...]</span>, <span title=\"Codes:{urn:oid:2.16.840.1.113883.3.1937.777.24.5.3 2.16.840.1.113883.3.1937.777.24.5.3.8}\">MDAT wissenschaftlich nutzen EU DSGVO NIVEAU</span></td></tr><tr><td style=\"display: none\">*</td><td>Opt In</td><td>2021-05-19 17:50:22+0200 --&gt; 2051-05-19 17:50:23+0200</td><td><span title=\"Codes:{https://ths-greifswald.de/fhir/CodeSystem/gics/Policy MDAT_zusammenfuehren_Dritte}\">Zusammenführung medizinischer Daten (MDAT)[...]</span>, <span title=\"Codes:{urn:oid:2.16.840.1.113883.3.1937.777.24.5.3 2.16.840.1.113883.3.1937.777.24.5.3.9}\">MDAT zusammenfuehren Dritte</span></td></tr><tr><td style=\"display: none\">*</td><td>Opt In</td><td>2021-05-19 17:50:22+0200 --&gt; 2051-05-19 17:50:23+0200</td><td><span title=\"Codes:{https://ths-greifswald.de/fhir/CodeSystem/gics/Policy Rekontaktierung_Verknuepfung_Datenbanken}\">Rekontaktierung zur Verknüpfung[...]</span>, <span title=\"Codes:{urn:oid:2.16.840.1.113883.3.1937.777.24.5.3 2.16.840.1.113883.3.1937.777.24.5.3.27}\">Rekontaktierung Verknüpfung Datenbanken</span></td></tr><tr><td style=\"display: none\">*</td><td>Opt In</td><td>2021-05-19 17:50:22+0200 --&gt; 2051-05-19 17:50:23+0200</td><td><span title=\"Codes:{https://ths-greifswald.de/fhir/CodeSystem/gics/Policy Rekontaktierung_weitere_Erhebung}\">Rekontaktierung bezüglich Erhebung zusätzlicher Daten</span>, <span title=\"Codes:{urn:oid:2.16.840.1.113883.3.1937.777.24.5.3 2.16.840.1.113883.3.1937.777.24.5.3.28}\">Rekontaktierung weitere Erhebung</span></td></tr><tr><td style=\"display: none\">*</td><td>Opt In</td><td>2021-05-19 17:50:22+0200 --&gt; 2051-05-19 17:50:23+0200</td><td><span title=\"Codes:{https://ths-greifswald.de/fhir/CodeSystem/gics/Policy Rekontaktierung_weitere_Studien}\">Rekontaktierung bezüglich Information[...]</span>, <span title=\"Codes:{urn:oid:2.16.840.1.113883.3.1937.777.24.5.3 2.16.840.1.113883.3.1937.777.24.5.3.29}\">Rekontaktierung weitere Studien</span></td></tr><tr><td style=\"display: none\">*</td><td>Opt In</td><td>2021-05-19 17:50:22+0200 --&gt; 2051-05-19 17:50:23+0200</td><td><span title=\"Codes:{https://ths-greifswald.de/fhir/CodeSystem/gics/Policy MDAT_GECCO83_bereitstellen_NUM_CODEX}\">Medizinische Daten des GECCO83 Datensatz[...]</span>, <span title=\"Codes:{urn:oid:2.16.840.1.113883.3.1937.777.24.5.3 2.16.840.1.113883.3.1937.777.24.5.3.33}\">MDAT GECCO83 bereitstellen NUM/CODEX</span></td></tr><tr><td style=\"display: none\">*</td><td>Opt In</td><td>2021-05-19 17:50:22+0200 --&gt; 2051-05-19 17:50:23+0200</td><td><span title=\"Codes:{https://ths-greifswald.de/fhir/CodeSystem/gics/Policy MDAT_GECCO83_speichern_verarbeiten_NUM_CODEX}\">Medizinische Daten des GECCO83 Datensatz[...]</span>, <span title=\"Codes:{urn:oid:2.16.840.1.113883.3.1937.777.24.5.3 2.16.840.1.113883.3.1937.777.24.5.3.34}\">MDAT GECCO83 speichern verarbeiten NUM/CODEX</span></td></tr><tr><td style=\"display: none\">*</td><td>Opt In</td><td>2021-05-19 17:50:22+0200 --&gt; 2051-05-19 17:50:23+0200</td><td><span title=\"Codes:{https://mii.de/fhir/CodeSystem/gics/Policy/MII MDAT_GECCO83_wissenschaftlich_nutzen_COVID_19_Forschung_EU_DSGVO_konform}\">Nutzung des Covid-19-Datensatzes[...]</span></td></tr><tr><td style=\"display: none\">*</td><td>Opt In</td><td>2021-05-19 17:50:22+0200 --&gt; 2051-05-19 17:50:23+0200</td><td><span title=\"Codes:{https://mii.de/fhir/CodeSystem/gics/Policy/MII MDAT_GECCO83_wissenschaftlich_nutzen_Pandemie_Forschung_EU_DSGVO_konform}\">Nutzung des Covid-19-Datensatzes[...]</span></td></tr><tr><td style=\"display: none\">*</td><td>Opt In</td><td>2021-05-19 17:50:22+0200 --&gt; 2051-05-19 17:50:23+0200</td><td><span title=\"Codes:{https://mii.de/fhir/CodeSystem/gics/Policy/MII Rekontaktierung_Zusatzbefund}\">Rekontaktierung bezüglich Zusatzbefund</span>, <span title=\"Codes:{urn:oid:2.16.840.1.113883.3.1937.777.24.5.3 2.16.840.1.113883.3.1937.777.24.5.3.31}\">Rekontaktierung Zusatzbefund</span></td></tr></table></blockquote></div>"
      },
      "extension" : [{
        "extension" : [{
          "url" : "domain",
          "valueReference" : {
            "reference" : "ResearchStudy/593d66f3-3654-4e8a-9524-3bcd78a363bb"
          }
        },
        {
          "url" : "status",
          "valueCoding" : {
            "system" : "http://hl7.org/fhir/publication-status",
            "code" : "active"
          }
        }],
        "url" : "http://fhir.de/ConsentManagement/StructureDefinition/DomainReference"
      }],
      "status" : "active",
      "scope" : {
        "coding" : [{
          "system" : "http://terminology.hl7.org/CodeSystem/consentscope",
          "code" : "research"
        }]
      },
      "category" : [{
        "coding" : [{
          "system" : "http://loinc.org",
          "code" : "57016-8"
        }]
      },
      {
        "coding" : [{
          "system" : "http://fhir.de/ConsentManagement/CodeSystem/ResultType",
          "code" : "document"
        }]
      }],
      "patient" : {
        "reference" : "Patient/d4c9a2fe-0eea-4a84-899d-3dbd9dc5c7f1",
        "display" : "Pseudonym dic_1H51T"
      },
      "dateTime" : "2021-05-19T00:00:00+02:00",
      "organization" : [{
        "display" : "MII"
      }],
      "sourceReference" : {
        "reference" : "QuestionnaireResponse/dfd5edc6-3a8a-4796-a9bb-f9572cf15c96"
      },
      "policy" : [{
        "uri" : "urn:oid:2.16.840.1.113883.3.1937.777.24.2.184"
      }],
      "provision" : {
        "type" : "deny",
        "period" : {
          "start" : "2021-05-19T17:50:22+02:00",
          "end" : "2051-05-19T17:50:23+02:00"
        },
        "provision" : [{
          "type" : "permit",
          "period" : {
            "start" : "2021-05-19T17:50:22+02:00",
            "end" : "2051-05-19T17:50:23+02:00"
          },
          "code" : [{
            "coding" : [{
              "system" : "https://ths-greifswald.de/fhir/CodeSystem/gics/Policy",
              "code" : "IDAT_bereitstellen_EU_DSGVO_NIVEAU",
              "display" : "Herausgabe identifizierender Daten (IDAT)[...]"
            }]
          },
          {
            "coding" : [{
              "system" : "urn:oid:2.16.840.1.113883.3.1937.777.24.5.3",
              "code" : "2.16.840.1.113883.3.1937.777.24.5.3.5"
            }]
          }]
        },
        {
          "type" : "permit",
          "period" : {
            "start" : "2021-05-19T17:50:22+02:00",
            "end" : "2051-05-19T17:50:23+02:00"
          },
          "code" : [{
            "coding" : [{
              "system" : "https://ths-greifswald.de/fhir/CodeSystem/gics/Policy",
              "code" : "IDAT_erheben",
              "display" : "Erfassung neuer identifizierender Daten (IDAT)"
            }]
          },
          {
            "coding" : [{
              "system" : "urn:oid:2.16.840.1.113883.3.1937.777.24.5.3",
              "code" : "2.16.840.1.113883.3.1937.777.24.5.3.2"
            }]
          }]
        },
        {
          "type" : "permit",
          "period" : {
            "start" : "2021-05-19T17:50:22+02:00",
            "end" : "2051-05-19T17:50:23+02:00"
          },
          "code" : [{
            "coding" : [{
              "system" : "https://ths-greifswald.de/fhir/CodeSystem/gics/Policy",
              "code" : "IDAT_speichern_verarbeiten",
              "display" : "Speicherung und Verarbeitung identifizierender Daten (IDAT)[...]"
            }]
          },
          {
            "coding" : [{
              "system" : "urn:oid:2.16.840.1.113883.3.1937.777.24.5.3",
              "code" : "2.16.840.1.113883.3.1937.777.24.5.3.3"
            }]
          }]
        },
        {
          "type" : "permit",
          "period" : {
            "start" : "2021-05-19T17:50:22+02:00",
            "end" : "2051-05-19T17:50:23+02:00"
          },
          "code" : [{
            "coding" : [{
              "system" : "https://ths-greifswald.de/fhir/CodeSystem/gics/Policy",
              "code" : "IDAT_zusammenfuehren_Dritte",
              "display" : "Zusammenführung identifizierender Daten (IDAT)[...]"
            }]
          },
          {
            "coding" : [{
              "system" : "urn:oid:2.16.840.1.113883.3.1937.777.24.5.3",
              "code" : "2.16.840.1.113883.3.1937.777.24.5.3.4"
            }]
          }]
        },
        {
          "type" : "permit",
          "period" : {
            "start" : "2021-05-19T17:50:22+02:00",
            "end" : "2051-05-19T17:50:23+02:00"
          },
          "code" : [{
            "coding" : [{
              "system" : "https://ths-greifswald.de/fhir/CodeSystem/gics/Policy",
              "code" : "MDAT_erheben",
              "display" : "Erfassung medizinischer Daten"
            }]
          },
          {
            "coding" : [{
              "system" : "urn:oid:2.16.840.1.113883.3.1937.777.24.5.3",
              "code" : "2.16.840.1.113883.3.1937.777.24.5.3.6"
            }]
          }]
        },
        {
          "type" : "permit",
          "period" : {
            "start" : "2021-05-19T17:50:22+02:00",
            "end" : "2051-05-19T17:50:23+02:00"
          },
          "code" : [{
            "coding" : [{
              "system" : "https://ths-greifswald.de/fhir/CodeSystem/gics/Policy",
              "code" : "MDAT_speichern_verarbeiten",
              "display" : "Speicherung_Verarbeitung von medizinischen Daten[...]"
            }]
          },
          {
            "coding" : [{
              "system" : "urn:oid:2.16.840.1.113883.3.1937.777.24.5.3",
              "code" : "2.16.840.1.113883.3.1937.777.24.5.3.7"
            }]
          }]
        },
        {
          "type" : "permit",
          "period" : {
            "start" : "2021-05-19T17:50:22+02:00",
            "end" : "2051-05-19T17:50:23+02:00"
          },
          "code" : [{
            "coding" : [{
              "system" : "https://ths-greifswald.de/fhir/CodeSystem/gics/Policy",
              "code" : "MDAT_wissenschaftlich_nutzen_EU_DSGVO_NIVEAU",
              "display" : "Bereitstellung medizinischer Daten (MDAT)[...]"
            }]
          },
          {
            "coding" : [{
              "system" : "urn:oid:2.16.840.1.113883.3.1937.777.24.5.3",
              "code" : "2.16.840.1.113883.3.1937.777.24.5.3.8"
            }]
          }]
        },
        {
          "type" : "permit",
          "period" : {
            "start" : "2021-05-19T17:50:22+02:00",
            "end" : "2051-05-19T17:50:23+02:00"
          },
          "code" : [{
            "coding" : [{
              "system" : "https://ths-greifswald.de/fhir/CodeSystem/gics/Policy",
              "code" : "MDAT_zusammenfuehren_Dritte",
              "display" : "Zusammenführung medizinischer Daten (MDAT)[...]"
            }]
          },
          {
            "coding" : [{
              "system" : "urn:oid:2.16.840.1.113883.3.1937.777.24.5.3",
              "code" : "2.16.840.1.113883.3.1937.777.24.5.3.9"
            }]
          }]
        },
        {
          "type" : "permit",
          "period" : {
            "start" : "2021-05-19T17:50:22+02:00",
            "end" : "2051-05-19T17:50:23+02:00"
          },
          "code" : [{
            "coding" : [{
              "system" : "https://ths-greifswald.de/fhir/CodeSystem/gics/Policy",
              "code" : "Rekontaktierung_Verknuepfung_Datenbanken",
              "display" : "Rekontaktierung zur Verknüpfung[...]"
            }]
          },
          {
            "coding" : [{
              "system" : "urn:oid:2.16.840.1.113883.3.1937.777.24.5.3",
              "code" : "2.16.840.1.113883.3.1937.777.24.5.3.27"
            }]
          }]
        },
        {
          "type" : "permit",
          "period" : {
            "start" : "2021-05-19T17:50:22+02:00",
            "end" : "2051-05-19T17:50:23+02:00"
          },
          "code" : [{
            "coding" : [{
              "system" : "https://ths-greifswald.de/fhir/CodeSystem/gics/Policy",
              "code" : "Rekontaktierung_weitere_Erhebung",
              "display" : "Rekontaktierung bezüglich Erhebung zusätzlicher Daten"
            }]
          },
          {
            "coding" : [{
              "system" : "urn:oid:2.16.840.1.113883.3.1937.777.24.5.3",
              "code" : "2.16.840.1.113883.3.1937.777.24.5.3.28"
            }]
          }]
        },
        {
          "type" : "permit",
          "period" : {
            "start" : "2021-05-19T17:50:22+02:00",
            "end" : "2051-05-19T17:50:23+02:00"
          },
          "code" : [{
            "coding" : [{
              "system" : "https://ths-greifswald.de/fhir/CodeSystem/gics/Policy",
              "code" : "Rekontaktierung_weitere_Studien",
              "display" : "Rekontaktierung bezüglich Information[...]"
            }]
          },
          {
            "coding" : [{
              "system" : "urn:oid:2.16.840.1.113883.3.1937.777.24.5.3",
              "code" : "2.16.840.1.113883.3.1937.777.24.5.3.29"
            }]
          }]
        },
        {
          "type" : "permit",
          "period" : {
            "start" : "2021-05-19T17:50:22+02:00",
            "end" : "2051-05-19T17:50:23+02:00"
          },
          "code" : [{
            "coding" : [{
              "system" : "https://ths-greifswald.de/fhir/CodeSystem/gics/Policy",
              "code" : "MDAT_GECCO83_bereitstellen_NUM_CODEX",
              "display" : "Medizinische Daten des GECCO83 Datensatz[...]"
            }]
          },
          {
            "coding" : [{
              "system" : "urn:oid:2.16.840.1.113883.3.1937.777.24.5.3",
              "code" : "2.16.840.1.113883.3.1937.777.24.5.3.33"
            }]
          }]
        },
        {
          "type" : "permit",
          "period" : {
            "start" : "2021-05-19T17:50:22+02:00",
            "end" : "2051-05-19T17:50:23+02:00"
          },
          "code" : [{
            "coding" : [{
              "system" : "https://ths-greifswald.de/fhir/CodeSystem/gics/Policy",
              "code" : "MDAT_GECCO83_speichern_verarbeiten_NUM_CODEX",
              "display" : "Medizinische Daten des GECCO83 Datensatz[...]"
            }]
          },
          {
            "coding" : [{
              "system" : "urn:oid:2.16.840.1.113883.3.1937.777.24.5.3",
              "code" : "2.16.840.1.113883.3.1937.777.24.5.3.34"
            }]
          }]
        },
        {
          "type" : "permit",
          "period" : {
            "start" : "2021-05-19T17:50:22+02:00",
            "end" : "2051-05-19T17:50:23+02:00"
          },
          "code" : [{
            "coding" : [{
              "system" : "https://mii.de/fhir/CodeSystem/gics/Policy/MII",
              "code" : "MDAT_GECCO83_wissenschaftlich_nutzen_COVID_19_Forschung_EU_DSGVO_konform",
              "display" : "Nutzung des Covid-19-Datensatzes[...]"
            }]
          }]
        },
        {
          "type" : "permit",
          "period" : {
            "start" : "2021-05-19T17:50:22+02:00",
            "end" : "2051-05-19T17:50:23+02:00"
          },
          "code" : [{
            "coding" : [{
              "system" : "https://mii.de/fhir/CodeSystem/gics/Policy/MII",
              "code" : "MDAT_GECCO83_wissenschaftlich_nutzen_Pandemie_Forschung_EU_DSGVO_konform",
              "display" : "Nutzung des Covid-19-Datensatzes[...]"
            }]
          }]
        },
        {
          "type" : "permit",
          "period" : {
            "start" : "2021-05-19T17:50:22+02:00",
            "end" : "2051-05-19T17:50:23+02:00"
          },
          "code" : [{
            "coding" : [{
              "system" : "https://mii.de/fhir/CodeSystem/gics/Policy/MII",
              "code" : "Rekontaktierung_Zusatzbefund",
              "display" : "Rekontaktierung bezüglich Zusatzbefund"
            }]
          },
          {
            "coding" : [{
              "system" : "urn:oid:2.16.840.1.113883.3.1937.777.24.5.3",
              "code" : "2.16.840.1.113883.3.1937.777.24.5.3.31"
            }]
          }]
        }]
      }
    }
  },
  {
    "fullUrl" : "urn:uuid:ab52ee3d-0616-4b07-8449-65264f97e5ad",
    "resource" : {
      "resourceType" : "Provenance",
      "id" : "ab52ee3d-0616-4b07-8449-65264f97e5ad",
      "meta" : {
        "lastUpdated" : "2021-05-19T17:50:23.000+02:00",
        "profile" : ["https://ths-greifswald.de/fhir/StructureDefinition/gics/Provenance",
        "http://fhir.de/ConsentManagement/StructureDefinition/Provenance"]
      },
      "text" : {
        "status" : "generated",
        "div" : "<div xmlns=\"http://www.w3.org/1999/xhtml\"><a name=\"Provenance_ab52ee3d-0616-4b07-8449-65264f97e5ad\"> </a><p class=\"res-header-id\"><b>Generated Narrative: Provenance ab52ee3d-0616-4b07-8449-65264f97e5ad</b></p><a name=\"ab52ee3d-0616-4b07-8449-65264f97e5ad\"> </a><a name=\"hcab52ee3d-0616-4b07-8449-65264f97e5ad\"> </a><div style=\"display: inline-block; background-color: #d9e0e7; padding: 6px; margin: 4px; border: 1px solid #8da1b4; border-radius: 5px; line-height: 60%\"><p style=\"margin-bottom: 0px\">Last updated: 2021-05-19 17:50:23+0200</p><p style=\"margin-bottom: 0px\">Profiles: <a href=\"StructureDefinition-Provenance.html\">Herkunftsinformationen und Signatur</a>, <a href=\"https://simplifier.net/resolve?scope=de.einwilligungsmanagement@2.0.2&amp;canonical=http://fhir.de/ConsentManagement/StructureDefinition/Provenance\">Consent Management Provenance</a></p></div><p>Provenance for <a href=\"Bundle-AllConsentsForDomain-response-example-1.html#Consent_d72bc4dc-1f2b-4c5d-8f3c-51fe6a9a5d90\">Consent: extension = ; status = active; scope = Research; category = Privacy policy acknowledgment Document,Dokument; dateTime = 2021-05-19 00:00:00+0200; source[x] = -&gt;Response to Questionnaire 'https://ths-greifswald.de/fhir/gics/QuestionnaireComposed/MII/Patienteneinwilligung+MII|1.6.f' about '-&gt;Pseudonym dic_1H51T'</a></p><p>Summary</p><table class=\"grid\"><tr><td>Recorded</td><td>2021-05-19 17:50:23+0200</td></tr></table><p><b>Agents</b></p><table class=\"grid\"><tr><td><b>who</b></td></tr><tr><td>https://ths-greifswald.de/gics</td></tr></table></div>"
      },
      "target" : [{
        "reference" : "Consent/d72bc4dc-1f2b-4c5d-8f3c-51fe6a9a5d90"
      }],
      "recorded" : "2021-05-19T17:50:23.000+02:00",
      "agent" : [{
        "who" : {
          "display" : "https://ths-greifswald.de/gics"
        }
      }],
      "signature" : [{
        "extension" : [{
          "url" : "http://fhir.de/ConsentManagement/StructureDefinition/SignatureLocation",
          "valueString" : "Erlangen"
        }],
        "type" : [{
          "system" : "urn:iso-astm:E1762-95:2013",
          "code" : "1.2.840.10065.1.12.1.7",
          "display" : "Consent Signature"
        }],
        "when" : "2021-05-19T00:00:00.000+02:00",
        "who" : {
          "reference" : "Patient/d4c9a2fe-0eea-4a84-899d-3dbd9dc5c7f1",
          "display" : "Pseudonym dic_1H51T"
        },
        "data" : "ZHVtbXky"
      },
      {
        "extension" : [{
          "url" : "http://fhir.de/ConsentManagement/StructureDefinition/SignatureLocation",
          "valueString" : "Erlangen"
        }],
        "type" : [{
          "system" : "urn:iso-astm:E1762-95:2013",
          "code" : "1.2.840.10065.1.12.1.5",
          "display" : "Verification Signature"
        }],
        "when" : "2021-05-19T00:00:00.000+02:00",
        "who" : {
          "display" : "arzt_12345"
        },
        "data" : "ZHVtbXk="
      }]
    }
  },
  {
    "fullUrl" : "urn:uuid:d4c9a2fe-0eea-4a84-899d-3dbd9dc5c7f1",
    "resource" : {
      "resourceType" : "Patient",
      "id" : "d4c9a2fe-0eea-4a84-899d-3dbd9dc5c7f1",
      "meta" : {
        "lastUpdated" : "2021-05-19T17:50:23.000+02:00",
        "profile" : ["http://fhir.de/ConsentManagement/StructureDefinition/Patient"]
      },
      "text" : {
        "status" : "generated",
        "div" : "<div xmlns=\"http://www.w3.org/1999/xhtml\"><a name=\"Patient_d4c9a2fe-0eea-4a84-899d-3dbd9dc5c7f1\"> </a><p class=\"res-header-id\"><b>Generated Narrative: Patient d4c9a2fe-0eea-4a84-899d-3dbd9dc5c7f1</b></p><a name=\"d4c9a2fe-0eea-4a84-899d-3dbd9dc5c7f1\"> </a><a name=\"hcd4c9a2fe-0eea-4a84-899d-3dbd9dc5c7f1\"> </a><div style=\"display: inline-block; background-color: #d9e0e7; padding: 6px; margin: 4px; border: 1px solid #8da1b4; border-radius: 5px; line-height: 60%\"><p style=\"margin-bottom: 0px\">Last updated: 2021-05-19 17:50:23+0200</p><p style=\"margin-bottom: 0px\">Profile: <a href=\"https://simplifier.net/resolve?scope=de.einwilligungsmanagement@2.0.2&amp;canonical=http://fhir.de/ConsentManagement/StructureDefinition/Patient\">Consent Management: Patient</a></p></div><p style=\"border: 1px #661aff solid; background-color: #e6e6ff; padding: 10px;\">Anonymous Patient (no stated gender), DoB Unknown ( Anonymous identifier: dic_1H51T)</p><hr/></div>"
      },
      "identifier" : [{
        "type" : {
          "coding" : [{
            "system" : "http://terminology.hl7.org/CodeSystem/v2-0203",
            "code" : "ANON",
            "display" : "Anonymous identifier"
          }]
        },
        "system" : "https://ths-greifswald.de/fhir/gics/identifiers/Pseudonym",
        "value" : "dic_1H51T"
      }]
    }
  }]
}