<?xml version="1.0" encoding="UTF-8"?>

<Bundle xmlns="http://hl7.org/fhir">
  <id value="AddConsent-response-example-1"/>
  <type value="collection"/>
  <entry>
    <resource>
      <QuestionnaireResponse>
        <id value="bd56b7e3-336c-49a6-aa31-1987b02f26cf"/>
        <meta>
          <lastUpdated value="2023-02-28T16:59:47.654+01:00"/>
          <profile value="http://fhir.de/ConsentManagement/StructureDefinition/QuestionnaireResponse"/>
        </meta>
        <language value="de"/>
        <text>
          <status value="generated"/><div xmlns="http://www.w3.org/1999/xhtml" xml:lang="de" lang="de"><a name="QuestionnaireResponse_bd56b7e3-336c-49a6-aa31-1987b02f26cf"> </a><p class="res-header-id"><b>Generated Narrative: QuestionnaireResponse bd56b7e3-336c-49a6-aa31-1987b02f26cf</b></p><a name="bd56b7e3-336c-49a6-aa31-1987b02f26cf"> </a><a name="hcbd56b7e3-336c-49a6-aa31-1987b02f26cf"> </a><div style="display: inline-block; background-color: #d9e0e7; padding: 6px; margin: 4px; border: 1px solid #8da1b4; border-radius: 5px; line-height: 60%"><p style="margin-bottom: 0px">Last updated: 2023-02-28 16:59:47+0100; Language: de</p><p style="margin-bottom: 0px">Profile: <a href="https://simplifier.net/resolve?scope=de.einwilligungsmanagement@2.0.2&amp;canonical=http://fhir.de/ConsentManagement/StructureDefinition/QuestionnaireResponse">Consent Management QuestionnaireResponse</a></p></div><table border="1" cellpadding="0" cellspacing="0" style="border: 1px #F0F0F0 solid; font-size: 11px; font-family: verdana; vertical-align: top;"><tr style="border: 2px #F0F0F0 solid; font-size: 11px; font-family: verdana; vertical-align: top"><th style="vertical-align: top; text-align : var(--ig-left,left); background-color: white; border: 1px #F0F0F0 solid; padding:0px 4px 0px 4px; padding-top: 3px; padding-bottom: 3px" class="hierarchy"><a href="https://hl7.org/fhir/R4/formats.html#table" title="The linkID for the item">LinkID</a></th><th style="vertical-align: top; text-align : var(--ig-left,left); background-color: white; border: 1px #F0F0F0 solid; padding:0px 4px 0px 4px; padding-top: 3px; padding-bottom: 3px" class="hierarchy"><a href="https://hl7.org/fhir/R4/formats.html#table" title="Text for the item">Text</a></th><th style="vertical-align: top; text-align : var(--ig-left,left); background-color: white; border: 1px #F0F0F0 solid; padding:0px 4px 0px 4px; padding-top: 3px; padding-bottom: 3px" class="hierarchy"><a href="https://hl7.org/fhir/R4/formats.html#table" title="Minimum and Maximum # of times the item can appear in the instance">Definition</a></th><th style="vertical-align: top; text-align : var(--ig-left,left); background-color: white; border: 1px #F0F0F0 solid; padding:0px 4px 0px 4px; padding-top: 3px; padding-bottom: 3px" class="hierarchy"><a href="https://hl7.org/fhir/R4/formats.html#table" title="The type of the item">Answer</a><span style="float: right"><a href="https://hl7.org/fhir/R4/formats.html#table" title="Legend for this format"><img src="data:image/png;base64," alt="doco" style="background-color: inherit"/></a></span></th></tr><tr style="border: 1px #F0F0F0 solid; padding:0px; vertical-align: top; background-color: white"><td style="vertical-align: top; text-align : var(--ig-left,left); background-color: white; border: 1px #F0F0F0 solid; padding:0px 4px 0px 4px; white-space: nowrap; background-image: url(tbl_bck1.png)" class="hierarchy"><img src="tbl_spacer.png" alt="." style="background-color: inherit" class="hierarchy"/><img src="icon_q_root.gif" alt="." style="background-color: white; background-color: inherit" title="QuestionnaireResponseRoot" class="hierarchy"/> bd56b7e3-336c-49a6-aa31-1987b02f26cf</td><td style="vertical-align: top; text-align : var(--ig-left,left); background-color: white; border: 1px #F0F0F0 solid; padding:0px 4px 0px 4px" class="hierarchy"></td><td style="vertical-align: top; text-align : var(--ig-left,left); background-color: white; border: 1px #F0F0F0 solid; padding:0px 4px 0px 4px" class="hierarchy"></td><td style="vertical-align: top; text-align : var(--ig-left,left); background-color: white; border: 1px #F0F0F0 solid; padding:0px 4px 0px 4px" class="hierarchy">Questionnaire:https://ths-greifswald.de/fhir/gics/QuestionnaireComposed/MII/Patienteneinwilligung+MII|1.6.d</td></tr>
<tr style="border: 1px #F0F0F0 solid; padding:0px; vertical-align: top; background-color: #F7F7F7"><td style="vertical-align: top; text-align : var(--ig-left,left); background-color: #F7F7F7; border: 1px #F0F0F0 solid; padding:0px 4px 0px 4px; white-space: nowrap; background-image: url(tbl_bck10.png)" class="hierarchy"><img src="tbl_spacer.png" alt="." style="background-color: inherit" class="hierarchy"/><img src="tbl_vjoin.png" alt="." style="background-color: inherit" class="hierarchy"/><img src="icon-q-string.png" alt="." style="background-color: #F7F7F7; background-color: inherit" title="Item" class="hierarchy"/> KKDAT_prospektiv_uebertragen_speichern_nutzen|1.8</td><td style="vertical-align: top; text-align : var(--ig-left,left); background-color: #F7F7F7; border: 1px #F0F0F0 solid; padding:0px 4px 0px 4px" class="hierarchy"></td><td style="vertical-align: top; text-align : var(--ig-left,left); background-color: #F7F7F7; border: 1px #F0F0F0 solid; padding:0px 4px 0px 4px" class="hierarchy"/><td style="vertical-align: top; text-align : var(--ig-left,left); background-color: #F7F7F7; border: 1px #F0F0F0 solid; padding:0px 4px 0px 4px" class="hierarchy"><span><span><a href="https://simplifier.net/resolve?scope=de.medizininformatikinitiative.kerndatensatz.consent@2025.0.4&amp;canonical=urn:oid:2.16.840.1.113883.3.1937.777.24.5.2#2.16.840.1.113883.3.1937.777.24.5.2--20210423105554-2.4616.46840.461.46113883.463.461937.46777.4624.465.462.462">MII Consent: Answer CodeSystem 2.16.840.1.113883.3.1937.777.24.5.2.2</a>: ungültig</span></span></td></tr>
<tr style="border: 1px #F0F0F0 solid; padding:0px; vertical-align: top; background-color: white"><td style="vertical-align: top; text-align : var(--ig-left,left); background-color: white; border: 1px #F0F0F0 solid; padding:0px 4px 0px 4px; white-space: nowrap; background-image: url(tbl_bck10.png)" class="hierarchy"><img src="tbl_spacer.png" alt="." style="background-color: inherit" class="hierarchy"/><img src="tbl_vjoin.png" alt="." style="background-color: inherit" class="hierarchy"/><img src="icon-q-string.png" alt="." style="background-color: white; background-color: inherit" title="Item" class="hierarchy"/> PATDAT_erheben_speichern_nutzen|1.8</td><td style="vertical-align: top; text-align : var(--ig-left,left); background-color: white; border: 1px #F0F0F0 solid; padding:0px 4px 0px 4px" class="hierarchy"></td><td style="vertical-align: top; text-align : var(--ig-left,left); background-color: white; border: 1px #F0F0F0 solid; padding:0px 4px 0px 4px" class="hierarchy"/><td style="vertical-align: top; text-align : var(--ig-left,left); background-color: white; border: 1px #F0F0F0 solid; padding:0px 4px 0px 4px" class="hierarchy"><span><span><a href="https://simplifier.net/resolve?scope=de.medizininformatikinitiative.kerndatensatz.consent@2025.0.4&amp;canonical=urn:oid:2.16.840.1.113883.3.1937.777.24.5.2#2.16.840.1.113883.3.1937.777.24.5.2--20210423105554-2.4616.46840.461.46113883.463.461937.46777.4624.465.462.461">MII Consent: Answer CodeSystem 2.16.840.1.113883.3.1937.777.24.5.2.1</a>: gültig</span></span></td></tr>
<tr style="border: 1px #F0F0F0 solid; padding:0px; vertical-align: top; background-color: #F7F7F7"><td style="vertical-align: top; text-align : var(--ig-left,left); background-color: #F7F7F7; border: 1px #F0F0F0 solid; padding:0px 4px 0px 4px; white-space: nowrap; background-image: url(tbl_bck10.png)" class="hierarchy"><img src="tbl_spacer.png" alt="." style="background-color: inherit" class="hierarchy"/><img src="tbl_vjoin.png" alt="." style="background-color: inherit" class="hierarchy"/><img src="icon-q-string.png" alt="." style="background-color: #F7F7F7; background-color: inherit" title="Item" class="hierarchy"/> BIOMAT_erheben_lagern_nutzen|1.8</td><td style="vertical-align: top; text-align : var(--ig-left,left); background-color: #F7F7F7; border: 1px #F0F0F0 solid; padding:0px 4px 0px 4px" class="hierarchy"></td><td style="vertical-align: top; text-align : var(--ig-left,left); background-color: #F7F7F7; border: 1px #F0F0F0 solid; padding:0px 4px 0px 4px" class="hierarchy"/><td style="vertical-align: top; text-align : var(--ig-left,left); background-color: #F7F7F7; border: 1px #F0F0F0 solid; padding:0px 4px 0px 4px" class="hierarchy"><span><span><a href="https://simplifier.net/resolve?scope=de.medizininformatikinitiative.kerndatensatz.consent@2025.0.4&amp;canonical=urn:oid:2.16.840.1.113883.3.1937.777.24.5.2#2.16.840.1.113883.3.1937.777.24.5.2--20210423105554-2.4616.46840.461.46113883.463.461937.46777.4624.465.462.462">MII Consent: Answer CodeSystem 2.16.840.1.113883.3.1937.777.24.5.2.2</a>: ungültig</span></span></td></tr>
<tr style="border: 1px #F0F0F0 solid; padding:0px; vertical-align: top; background-color: white"><td style="vertical-align: top; text-align : var(--ig-left,left); background-color: white; border: 1px #F0F0F0 solid; padding:0px 4px 0px 4px; white-space: nowrap; background-image: url(tbl_bck10.png)" class="hierarchy"><img src="tbl_spacer.png" alt="." style="background-color: inherit" class="hierarchy"/><img src="tbl_vjoin.png" alt="." style="background-color: inherit" class="hierarchy"/><img src="icon-q-string.png" alt="." style="background-color: white; background-color: inherit" title="Item" class="hierarchy"/> Rekontaktierung_Ergaenzungen|1.7</td><td style="vertical-align: top; text-align : var(--ig-left,left); background-color: white; border: 1px #F0F0F0 solid; padding:0px 4px 0px 4px" class="hierarchy"></td><td style="vertical-align: top; text-align : var(--ig-left,left); background-color: white; border: 1px #F0F0F0 solid; padding:0px 4px 0px 4px" class="hierarchy"/><td style="vertical-align: top; text-align : var(--ig-left,left); background-color: white; border: 1px #F0F0F0 solid; padding:0px 4px 0px 4px" class="hierarchy"><span><span><a href="https://simplifier.net/resolve?scope=de.medizininformatikinitiative.kerndatensatz.consent@2025.0.4&amp;canonical=urn:oid:2.16.840.1.113883.3.1937.777.24.5.2#2.16.840.1.113883.3.1937.777.24.5.2--20210423105554-2.4616.46840.461.46113883.463.461937.46777.4624.465.462.461">MII Consent: Answer CodeSystem 2.16.840.1.113883.3.1937.777.24.5.2.1</a>: gültig</span></span></td></tr>
<tr style="border: 1px #F0F0F0 solid; padding:0px; vertical-align: top; background-color: #F7F7F7"><td style="vertical-align: top; text-align : var(--ig-left,left); background-color: #F7F7F7; border: 1px #F0F0F0 solid; padding:0px 4px 0px 4px; white-space: nowrap; background-image: url(tbl_bck10.png)" class="hierarchy"><img src="tbl_spacer.png" alt="." style="background-color: inherit" class="hierarchy"/><img src="tbl_vjoin.png" alt="." style="background-color: inherit" class="hierarchy"/><img src="icon-q-string.png" alt="." style="background-color: #F7F7F7; background-color: inherit" title="Item" class="hierarchy"/> BIOMAT_Zusatzentnahme|1.8</td><td style="vertical-align: top; text-align : var(--ig-left,left); background-color: #F7F7F7; border: 1px #F0F0F0 solid; padding:0px 4px 0px 4px" class="hierarchy"></td><td style="vertical-align: top; text-align : var(--ig-left,left); background-color: #F7F7F7; border: 1px #F0F0F0 solid; padding:0px 4px 0px 4px" class="hierarchy"/><td style="vertical-align: top; text-align : var(--ig-left,left); background-color: #F7F7F7; border: 1px #F0F0F0 solid; padding:0px 4px 0px 4px" class="hierarchy"><span><span><a href="https://simplifier.net/resolve?scope=de.medizininformatikinitiative.kerndatensatz.consent@2025.0.4&amp;canonical=urn:oid:2.16.840.1.113883.3.1937.777.24.5.2#2.16.840.1.113883.3.1937.777.24.5.2--20210423105554-2.4616.46840.461.46113883.463.461937.46777.4624.465.462.462">MII Consent: Answer CodeSystem 2.16.840.1.113883.3.1937.777.24.5.2.2</a>: ungültig</span></span></td></tr>
<tr style="border: 1px #F0F0F0 solid; padding:0px; vertical-align: top; background-color: white"><td style="vertical-align: top; text-align : var(--ig-left,left); background-color: white; border: 1px #F0F0F0 solid; padding:0px 4px 0px 4px; white-space: nowrap; background-image: url(tbl_bck10.png)" class="hierarchy"><img src="tbl_spacer.png" alt="." style="background-color: inherit" class="hierarchy"/><img src="tbl_vjoin.png" alt="." style="background-color: inherit" class="hierarchy"/><img src="icon-q-string.png" alt="." style="background-color: white; background-color: inherit" title="Item" class="hierarchy"/> KKDAT_retrospektiv_uebertragen_speichern_nutzen|1.8</td><td style="vertical-align: top; text-align : var(--ig-left,left); background-color: white; border: 1px #F0F0F0 solid; padding:0px 4px 0px 4px" class="hierarchy"></td><td style="vertical-align: top; text-align : var(--ig-left,left); background-color: white; border: 1px #F0F0F0 solid; padding:0px 4px 0px 4px" class="hierarchy"/><td style="vertical-align: top; text-align : var(--ig-left,left); background-color: white; border: 1px #F0F0F0 solid; padding:0px 4px 0px 4px" class="hierarchy"><span><span><a href="https://simplifier.net/resolve?scope=de.medizininformatikinitiative.kerndatensatz.consent@2025.0.4&amp;canonical=urn:oid:2.16.840.1.113883.3.1937.777.24.5.2#2.16.840.1.113883.3.1937.777.24.5.2--20210423105554-2.4616.46840.461.46113883.463.461937.46777.4624.465.462.462">MII Consent: Answer CodeSystem 2.16.840.1.113883.3.1937.777.24.5.2.2</a>: ungültig</span></span></td></tr>
<tr style="border: 1px #F0F0F0 solid; padding:0px; vertical-align: top; background-color: #F7F7F7"><td style="vertical-align: top; text-align : var(--ig-left,left); background-color: #F7F7F7; border: 1px #F0F0F0 solid; padding:0px 4px 0px 4px; white-space: nowrap; background-image: url(tbl_bck00.png)" class="hierarchy"><img src="tbl_spacer.png" alt="." style="background-color: inherit" class="hierarchy"/><img src="tbl_vjoin_end.png" alt="." style="background-color: inherit" class="hierarchy"/><img src="icon-q-string.png" alt="." style="background-color: #F7F7F7; background-color: inherit" title="Item" class="hierarchy"/> Rekontaktierung_Zusatzbefund|1.8</td><td style="vertical-align: top; text-align : var(--ig-left,left); background-color: #F7F7F7; border: 1px #F0F0F0 solid; padding:0px 4px 0px 4px" class="hierarchy"></td><td style="vertical-align: top; text-align : var(--ig-left,left); background-color: #F7F7F7; border: 1px #F0F0F0 solid; padding:0px 4px 0px 4px" class="hierarchy"/><td style="vertical-align: top; text-align : var(--ig-left,left); background-color: #F7F7F7; border: 1px #F0F0F0 solid; padding:0px 4px 0px 4px" class="hierarchy"><span><span><a href="https://simplifier.net/resolve?scope=de.medizininformatikinitiative.kerndatensatz.consent@2025.0.4&amp;canonical=urn:oid:2.16.840.1.113883.3.1937.777.24.5.2#2.16.840.1.113883.3.1937.777.24.5.2--20210423105554-2.4616.46840.461.46113883.463.461937.46777.4624.465.462.461">MII Consent: Answer CodeSystem 2.16.840.1.113883.3.1937.777.24.5.2.1</a>: gültig</span></span></td></tr>
<tr><td colspan="4" class="hierarchy"><br/><a href="https://hl7.org/fhir/R4/formats.html#table" title="Legend for this format"><img src="data:image/png;base64," alt="doco" style="background-color: inherit"/> Documentation for this format</a></td></tr></table></div>
        </text>
        <questionnaire value="https://ths-greifswald.de/fhir/gics/QuestionnaireComposed/MII/Patienteneinwilligung+MII|1.6.d"/>
        <status value="completed"/>
        <subject>
          <reference value="Patient/71e9be08-86ef-4403-9770-fbbfcdd3589c"/>
          <display value="Pseudonym studypsn1"/>
        </subject>
        <authored value="2022-12-21T00:00:00+01:00"/>
        <author>
          <reference value="Patient/71e9be08-86ef-4403-9770-fbbfcdd3589c"/>
          <display value="Pseudonym studypsn1"/>
        </author>
        <source>
          <reference value="Patient/71e9be08-86ef-4403-9770-fbbfcdd3589c"/>
          <display value="Pseudonym studypsn1"/>
        </source>
        <item>
          <linkId value="KKDAT_prospektiv_uebertragen_speichern_nutzen|1.8"/>
          <answer>
            <valueCoding>
              <system value="urn:oid:2.16.840.1.113883.3.1937.777.24.5.2"/>
              <code value="2.16.840.1.113883.3.1937.777.24.5.2.2"/>
              <display value="ungültig"/>
            </valueCoding>
          </answer>
        </item>
        <item>
          <linkId value="PATDAT_erheben_speichern_nutzen|1.8"/>
          <answer>
            <valueCoding>
              <system value="urn:oid:2.16.840.1.113883.3.1937.777.24.5.2"/>
              <code value="2.16.840.1.113883.3.1937.777.24.5.2.1"/>
              <display value="gültig"/>
            </valueCoding>
          </answer>
        </item>
        <item>
          <linkId value="BIOMAT_erheben_lagern_nutzen|1.8"/>
          <answer>
            <valueCoding>
              <system value="urn:oid:2.16.840.1.113883.3.1937.777.24.5.2"/>
              <code value="2.16.840.1.113883.3.1937.777.24.5.2.2"/>
              <display value="ungültig"/>
            </valueCoding>
          </answer>
        </item>
        <item>
          <linkId value="Rekontaktierung_Ergaenzungen|1.7"/>
          <answer>
            <valueCoding>
              <system value="urn:oid:2.16.840.1.113883.3.1937.777.24.5.2"/>
              <code value="2.16.840.1.113883.3.1937.777.24.5.2.1"/>
              <display value="gültig"/>
            </valueCoding>
          </answer>
        </item>
        <item>
          <linkId value="BIOMAT_Zusatzentnahme|1.8"/>
          <answer>
            <valueCoding>
              <system value="urn:oid:2.16.840.1.113883.3.1937.777.24.5.2"/>
              <code value="2.16.840.1.113883.3.1937.777.24.5.2.2"/>
              <display value="ungültig"/>
            </valueCoding>
          </answer>
        </item>
        <item>
          <linkId value="KKDAT_retrospektiv_uebertragen_speichern_nutzen|1.8"/>
          <answer>
            <valueCoding>
              <system value="urn:oid:2.16.840.1.113883.3.1937.777.24.5.2"/>
              <code value="2.16.840.1.113883.3.1937.777.24.5.2.2"/>
              <display value="ungültig"/>
            </valueCoding>
          </answer>
        </item>
        <item>
          <linkId value="Rekontaktierung_Zusatzbefund|1.8"/>
          <answer>
            <valueCoding>
              <system value="urn:oid:2.16.840.1.113883.3.1937.777.24.5.2"/>
              <code value="2.16.840.1.113883.3.1937.777.24.5.2.1"/>
              <display value="gültig"/>
            </valueCoding>
          </answer>
        </item>
      </QuestionnaireResponse>
    </resource>
  </entry>
  <entry>
    <resource>
      <Consent>
        <id value="538cdfee-dc99-4a2f-bacc-3144e57e811d"/>
        <meta>
          <lastUpdated value="2023-02-28T16:59:47.654+01:00"/>
          <profile value="https://ths-greifswald.de/fhir/StructureDefinition/gics/Consent"/>
        </meta>
        <text>
          <status value="extensions"/><div xmlns="http://www.w3.org/1999/xhtml"><a name="Consent_538cdfee-dc99-4a2f-bacc-3144e57e811d"> </a><p class="res-header-id"><b>Generated Narrative: Consent 538cdfee-dc99-4a2f-bacc-3144e57e811d</b></p><a name="538cdfee-dc99-4a2f-bacc-3144e57e811d"> </a><a name="hc538cdfee-dc99-4a2f-bacc-3144e57e811d"> </a><div style="display: inline-block; background-color: #d9e0e7; padding: 6px; margin: 4px; border: 1px solid #8da1b4; border-radius: 5px; line-height: 60%"><p style="margin-bottom: 0px">Last updated: 2023-02-28 16:59:47+0100</p><p style="margin-bottom: 0px">Profile: <a href="StructureDefinition-Consent.html">Einwilligungsinformationen</a></p></div><blockquote><p><b>Consent Management Domain Reference</b></p><ul><li>domain: <a href="https://simplifier.net/resolve?scope=de.einwilligungsmanagement@2.0.2&amp;canonical=http://fhir.org/packages/de.einwilligungsmanagement/ResearchStudy/627163a2-ed92-41c7-91e3-0b134127b47b">ResearchStudy/627163a2-ed92-41c7-91e3-0b134127b47b</a></li><li>status: <a href="http://hl7.org/fhir/R4/codesystem-publication-status.html#publication-status-active">PublicationStatus active</a>: Active</li></ul></blockquote><p><b>status</b>: Active</p><p><b>scope</b>: <span title="Codes:{http://terminology.hl7.org/CodeSystem/consentscope research}">Research</span></p><p><b>category</b>: <span title="Codes:{http://loinc.org 57016-8}">Privacy policy acknowledgment Document</span>, <span title="Codes:{http://fhir.de/ConsentManagement/CodeSystem/ResultType document}">Dokument</span></p><p><b>patient</b>: <a href="Bundle-AddConsent-response-example-1.html#Patient_71e9be08-86ef-4403-9770-fbbfcdd3589c">Pseudonym studypsn1</a></p><p><b>dateTime</b>: 2022-12-21 00:00:00+0100</p><p><b>organization</b>: MII</p><p><b>source</b>: <a href="Bundle-AddConsent-response-example-1.html#QuestionnaireResponse_bd56b7e3-336c-49a6-aa31-1987b02f26cf">Response to Questionnaire 'https://ths-greifswald.de/fhir/gics/QuestionnaireComposed/MII/Patienteneinwilligung+MII|1.6.d' about '-&gt;Pseudonym studypsn1'</a></p><h3>Policies</h3><table class="grid"><tr><td style="display: none">-</td><td><b>Uri</b></td></tr><tr><td style="display: none">*</td><td><a href="https://simplifier.net/resolve?scope=de.einwilligungsmanagement@2.0.2&amp;canonical=urn:uuid:627163a2-ed92-41c7-91e3-0b134127b47b">urn:uuid:627163a2-ed92-41c7-91e3-0b134127b47b</a></td></tr></table><blockquote><p><b>provision</b></p><p><b>type</b>: Opt Out</p><p><b>period</b>: 2022-12-21 00:00:00+0100 --&gt; 2052-12-21 00:00:00+0100</p><h3>Provisions</h3><table class="grid"><tr><td style="display: none">-</td><td><b>Type</b></td><td><b>Period</b></td><td><b>Code</b></td></tr><tr><td style="display: none">*</td><td>Opt In</td><td>2022-12-21 00:00:00+0100 --&gt; 2052-12-21 00:00:00+0100</td><td><span title="Codes:{https://mii.de/fhir/CodeSystem/gics/Policy/MII IDAT_bereitstellen_EU_DSGVO_konform}">Herausgabe identifizierender Daten (IDAT) an unabhängige Treuhandstelle zur weiteren Verarbeitung</span>, <span title="Codes:{urn:oid:2.16.840.1.113883.3.1937.777.24.5.3 2.16.840.1.113883.3.1937.777.24.5.3.5}">IDAT_bereitstellen_EU_DSGVO_NIVEAU</span></td></tr><tr><td style="display: none">*</td><td>Opt In</td><td>2022-12-21 00:00:00+0100 --&gt; 2052-12-21 00:00:00+0100</td><td><span title="Codes:{https://ths-greifswald.de/fhir/CodeSystem/gics/Policy IDAT_erheben}">Erfassung neuer identifizierender Daten (IDAT)</span>, <span title="Codes:{urn:oid:2.16.840.1.113883.3.1937.777.24.5.3 2.16.840.1.113883.3.1937.777.24.5.3.2}">IDAT_erheben</span></td></tr><tr><td style="display: none">*</td><td>Opt In</td><td>2022-12-21 00:00:00+0100 --&gt; 2052-12-21 00:00:00+0100</td><td><span title="Codes:{https://ths-greifswald.de/fhir/CodeSystem/gics/Policy IDAT_speichern_verarbeiten}">Speicherung und Verarbeitung identifizierender Daten (IDAT) zu Zwecken med. Forschung in der verantwortlichen Stelle</span>, <span title="Codes:{urn:oid:2.16.840.1.113883.3.1937.777.24.5.3 2.16.840.1.113883.3.1937.777.24.5.3.3}">IDAT_speichern_verarbeiten</span></td></tr><tr><td style="display: none">*</td><td>Opt In</td><td>2022-12-21 00:00:00+0100 --&gt; 2052-12-21 00:00:00+0100</td><td><span title="Codes:{https://ths-greifswald.de/fhir/CodeSystem/gics/Policy IDAT_zusammenfuehren_Dritte}">Zusammenführung identifizierender Daten (IDAT) über die unabhängige Treuhandstelle mit Dritten Forschungspartnern, sofern dort eine Einwilligung vorliegt</span>, <span title="Codes:{urn:oid:2.16.840.1.113883.3.1937.777.24.5.3 2.16.840.1.113883.3.1937.777.24.5.3.4}">IDAT_zusammenfuehren_Dritte</span></td></tr><tr><td style="display: none">*</td><td>Opt In</td><td>2022-12-21 00:00:00+0100 --&gt; 2027-12-21 00:00:00+0100</td><td><span title="Codes:{https://ths-greifswald.de/fhir/CodeSystem/gics/Policy MDAT_erheben}">Erfassung medizinischer Daten (MDAT)</span>, <span title="Codes:{urn:oid:2.16.840.1.113883.3.1937.777.24.5.3 2.16.840.1.113883.3.1937.777.24.5.3.6}">MDAT_erheben</span></td></tr><tr><td style="display: none">*</td><td>Opt In</td><td>2022-12-21 00:00:00+0100 --&gt; 2052-12-21 00:00:00+0100</td><td><span title="Codes:{https://ths-greifswald.de/fhir/CodeSystem/gics/Policy MDAT_speichern_verarbeiten}">Speicherung und Verarbeitung von medizinischen codierten Daten zu Zwecken med. Forschung innerhalb der verantwortlichen Stelle (MDAT)</span>, <span title="Codes:{urn:oid:2.16.840.1.113883.3.1937.777.24.5.3 2.16.840.1.113883.3.1937.777.24.5.3.7}">MDAT_speichern_verarbeiten</span></td></tr><tr><td style="display: none">*</td><td>Opt In</td><td>2022-12-21 00:00:00+0100 --&gt; 2052-12-21 00:00:00+0100</td><td><span title="Codes:{https://mii.de/fhir/CodeSystem/gics/Policy/MII MDAT_wissenschaftlich_nutzen_EU_DSGVO_konform}">Bereitstellung umcodierter medizinischer Daten (MDAT) für wissenschaftliche Nutzung zu Zwecken med. Forschung an externe Forscher</span>, <span title="Codes:{urn:oid:2.16.840.1.113883.3.1937.777.24.5.3 2.16.840.1.113883.3.1937.777.24.5.3.8}">MDAT_wissenschaftlich_nutzen_EU_DSGVO_NIVEAU</span></td></tr><tr><td style="display: none">*</td><td>Opt In</td><td>2022-12-21 00:00:00+0100 --&gt; 2052-12-21 00:00:00+0100</td><td><span title="Codes:{https://ths-greifswald.de/fhir/CodeSystem/gics/Policy MDAT_zusammenfuehren_Dritte}">Zusammenführung medizinischer Daten (MDAT) mit Dritten Forschungspartnern, sofern dort eine Einwilligung vorliegt</span>, <span title="Codes:{urn:oid:2.16.840.1.113883.3.1937.777.24.5.3 2.16.840.1.113883.3.1937.777.24.5.3.9}">MDAT_zusammenfuehren_Dritte</span></td></tr><tr><td style="display: none">*</td><td>Opt In</td><td>2022-12-21 00:00:00+0100 --&gt; 2052-12-21 00:00:00+0100</td><td><span title="Codes:{https://mii.de/fhir/CodeSystem/gics/Policy/MII Rekontaktierung_Ergebnisse_erheblicher_Bedeutung}">Rekontaktierung des Betroffenen bei Ergebnissen von erheblicher Bedeutung</span>, <span title="Codes:{urn:oid:2.16.840.1.113883.3.1937.777.24.5.3 2.16.840.1.113883.3.1937.777.24.5.3.37}">Rekontaktierung_Ergebnisse_erheblicher_Bedeutung</span></td></tr><tr><td style="display: none">*</td><td>Opt In</td><td>2022-12-21 00:00:00+0100 --&gt; 2052-12-21 00:00:00+0100</td><td><span title="Codes:{https://ths-greifswald.de/fhir/CodeSystem/gics/Policy Rekontaktierung_Verknuepfung_Datenbanken}">Rekontaktierung zur Verknüpfung von Patientendaten mit Daten anderer Datenbanken</span>, <span title="Codes:{urn:oid:2.16.840.1.113883.3.1937.777.24.5.3 2.16.840.1.113883.3.1937.777.24.5.3.27}">Rekontaktierung_Verknuepfung_Datenbanken</span></td></tr><tr><td style="display: none">*</td><td>Opt In</td><td>2022-12-21 00:00:00+0100 --&gt; 2052-12-21 00:00:00+0100</td><td><span title="Codes:{https://ths-greifswald.de/fhir/CodeSystem/gics/Policy Rekontaktierung_weitere_Erhebung}">Rekontaktierung bezüglich Erhebung zusätzlicher Daten</span>, <span title="Codes:{urn:oid:2.16.840.1.113883.3.1937.777.24.5.3 2.16.840.1.113883.3.1937.777.24.5.3.28}">Rekontaktierung_weitere_Erhebung</span></td></tr><tr><td style="display: none">*</td><td>Opt In</td><td>2022-12-21 00:00:00+0100 --&gt; 2052-12-21 00:00:00+0100</td><td><span title="Codes:{https://ths-greifswald.de/fhir/CodeSystem/gics/Policy Rekontaktierung_weitere_Studien}">Rekontaktierung bezüglich Information zu neuen Forschungsvorhaben oder Studien</span>, <span title="Codes:{urn:oid:2.16.840.1.113883.3.1937.777.24.5.3 2.16.840.1.113883.3.1937.777.24.5.3.29}">Rekontaktierung_weitere_Studien</span></td></tr><tr><td style="display: none">*</td><td>Opt In</td><td>2022-12-21 00:00:00+0100 --&gt; 2052-12-21 00:00:00+0100</td><td><span title="Codes:{https://mii.de/fhir/CodeSystem/gics/Policy/MII Rekontaktierung_Zusatzbefund}">Rekontaktierung bezüglich Zusatzbefund im Rahmen der am Standort dafür entwickelten Prozesse und der im Nutzungsantrag angegebenen Bedingungen</span>, <span title="Codes:{urn:oid:2.16.840.1.113883.3.1937.777.24.5.3 2.16.840.1.113883.3.1937.777.24.5.3.31}">Rekontaktierung_Zusatzbefund</span></td></tr></table></blockquote></div>
        </text>
        <extension url="http://fhir.de/ConsentManagement/StructureDefinition/DomainReference">
          <extension url="domain">
            <valueReference>
              <reference value="ResearchStudy/627163a2-ed92-41c7-91e3-0b134127b47b"/>
            </valueReference>
          </extension>
          <extension url="status">
            <valueCoding>
              <system value="http://hl7.org/fhir/publication-status"/>
              <code value="active"/>
            </valueCoding>
          </extension>
        </extension>
        <status value="active"/>
        <scope>
          <coding>
            <system value="http://terminology.hl7.org/CodeSystem/consentscope"/>
            <code value="research"/>
          </coding>
        </scope>
        <category>
          <coding>
            <system value="http://loinc.org"/>
            <code value="57016-8"/>
          </coding>
        </category>
        <category>
          <coding>
            <system value="http://fhir.de/ConsentManagement/CodeSystem/ResultType"/>
            <code value="document"/>
          </coding>
        </category>
        <patient>
          <reference value="Patient/71e9be08-86ef-4403-9770-fbbfcdd3589c"/>
          <display value="Pseudonym studypsn1"/>
        </patient>
        <dateTime value="2022-12-21T00:00:00+01:00"/>
        <organization>
          <display value="MII"/>
        </organization>
        <sourceReference>
          <reference value="QuestionnaireResponse/bd56b7e3-336c-49a6-aa31-1987b02f26cf"/>
        </sourceReference>
        <policy>
          <uri value="urn:uuid:627163a2-ed92-41c7-91e3-0b134127b47b"/>
        </policy>
        <provision>
          <type value="deny"/>
          <period>
            <start value="2022-12-21T00:00:00+01:00"/>
            <end value="2052-12-21T00:00:00+01:00"/>
          </period>
          <provision>
            <type value="permit"/>
            <period>
              <start value="2022-12-21T00:00:00+01:00"/>
              <end value="2052-12-21T00:00:00+01:00"/>
            </period>
            <code>
              <coding>
                <system value="https://mii.de/fhir/CodeSystem/gics/Policy/MII"/>
                <code value="IDAT_bereitstellen_EU_DSGVO_konform"/>
                <display value="Herausgabe identifizierender Daten (IDAT) an unabhängige Treuhandstelle zur weiteren Verarbeitung"/>
              </coding>
            </code>
            <code>
              <coding>
                <system value="urn:oid:2.16.840.1.113883.3.1937.777.24.5.3"/>
                <code value="2.16.840.1.113883.3.1937.777.24.5.3.5"/>
                <display value="IDAT_bereitstellen_EU_DSGVO_NIVEAU"/>
              </coding>
            </code>
          </provision>
          <provision>
            <type value="permit"/>
            <period>
              <start value="2022-12-21T00:00:00+01:00"/>
              <end value="2052-12-21T00:00:00+01:00"/>
            </period>
            <code>
              <coding>
                <system value="https://ths-greifswald.de/fhir/CodeSystem/gics/Policy"/>
                <code value="IDAT_erheben"/>
                <display value="Erfassung neuer identifizierender Daten (IDAT)"/>
              </coding>
            </code>
            <code>
              <coding>
                <system value="urn:oid:2.16.840.1.113883.3.1937.777.24.5.3"/>
                <code value="2.16.840.1.113883.3.1937.777.24.5.3.2"/>
                <display value="IDAT_erheben"/>
              </coding>
            </code>
          </provision>
          <provision>
            <type value="permit"/>
            <period>
              <start value="2022-12-21T00:00:00+01:00"/>
              <end value="2052-12-21T00:00:00+01:00"/>
            </period>
            <code>
              <coding>
                <system value="https://ths-greifswald.de/fhir/CodeSystem/gics/Policy"/>
                <code value="IDAT_speichern_verarbeiten"/>
                <display value="Speicherung und Verarbeitung identifizierender Daten (IDAT) zu Zwecken med. Forschung in der verantwortlichen Stelle"/>
              </coding>
            </code>
            <code>
              <coding>
                <system value="urn:oid:2.16.840.1.113883.3.1937.777.24.5.3"/>
                <code value="2.16.840.1.113883.3.1937.777.24.5.3.3"/>
                <display value="IDAT_speichern_verarbeiten"/>
              </coding>
            </code>
          </provision>
          <provision>
            <type value="permit"/>
            <period>
              <start value="2022-12-21T00:00:00+01:00"/>
              <end value="2052-12-21T00:00:00+01:00"/>
            </period>
            <code>
              <coding>
                <system value="https://ths-greifswald.de/fhir/CodeSystem/gics/Policy"/>
                <code value="IDAT_zusammenfuehren_Dritte"/>
                <display value="Zusammenführung identifizierender Daten (IDAT) über die unabhängige Treuhandstelle mit Dritten Forschungspartnern, sofern dort eine Einwilligung vorliegt"/>
              </coding>
            </code>
            <code>
              <coding>
                <system value="urn:oid:2.16.840.1.113883.3.1937.777.24.5.3"/>
                <code value="2.16.840.1.113883.3.1937.777.24.5.3.4"/>
                <display value="IDAT_zusammenfuehren_Dritte"/>
              </coding>
            </code>
          </provision>
          <provision>
            <type value="permit"/>
            <period>
              <start value="2022-12-21T00:00:00+01:00"/>
              <end value="2027-12-21T00:00:00+01:00"/>
            </period>
            <code>
              <coding>
                <system value="https://ths-greifswald.de/fhir/CodeSystem/gics/Policy"/>
                <code value="MDAT_erheben"/>
                <display value="Erfassung medizinischer Daten (MDAT)"/>
              </coding>
            </code>
            <code>
              <coding>
                <system value="urn:oid:2.16.840.1.113883.3.1937.777.24.5.3"/>
                <code value="2.16.840.1.113883.3.1937.777.24.5.3.6"/>
                <display value="MDAT_erheben"/>
              </coding>
            </code>
          </provision>
          <provision>
            <type value="permit"/>
            <period>
              <start value="2022-12-21T00:00:00+01:00"/>
              <end value="2052-12-21T00:00:00+01:00"/>
            </period>
            <code>
              <coding>
                <system value="https://ths-greifswald.de/fhir/CodeSystem/gics/Policy"/>
                <code value="MDAT_speichern_verarbeiten"/>
                <display value="Speicherung und Verarbeitung von medizinischen codierten Daten zu Zwecken med. Forschung innerhalb der verantwortlichen Stelle (MDAT)"/>
              </coding>
            </code>
            <code>
              <coding>
                <system value="urn:oid:2.16.840.1.113883.3.1937.777.24.5.3"/>
                <code value="2.16.840.1.113883.3.1937.777.24.5.3.7"/>
                <display value="MDAT_speichern_verarbeiten"/>
              </coding>
            </code>
          </provision>
          <provision>
            <type value="permit"/>
            <period>
              <start value="2022-12-21T00:00:00+01:00"/>
              <end value="2052-12-21T00:00:00+01:00"/>
            </period>
            <code>
              <coding>
                <system value="https://mii.de/fhir/CodeSystem/gics/Policy/MII"/>
                <code value="MDAT_wissenschaftlich_nutzen_EU_DSGVO_konform"/>
                <display value="Bereitstellung umcodierter medizinischer Daten (MDAT) für wissenschaftliche Nutzung zu Zwecken med. Forschung an externe Forscher"/>
              </coding>
            </code>
            <code>
              <coding>
                <system value="urn:oid:2.16.840.1.113883.3.1937.777.24.5.3"/>
                <code value="2.16.840.1.113883.3.1937.777.24.5.3.8"/>
                <display value="MDAT_wissenschaftlich_nutzen_EU_DSGVO_NIVEAU"/>
              </coding>
            </code>
          </provision>
          <provision>
            <type value="permit"/>
            <period>
              <start value="2022-12-21T00:00:00+01:00"/>
              <end value="2052-12-21T00:00:00+01:00"/>
            </period>
            <code>
              <coding>
                <system value="https://ths-greifswald.de/fhir/CodeSystem/gics/Policy"/>
                <code value="MDAT_zusammenfuehren_Dritte"/>
                <display value="Zusammenführung medizinischer Daten (MDAT) mit Dritten Forschungspartnern, sofern dort eine Einwilligung vorliegt"/>
              </coding>
            </code>
            <code>
              <coding>
                <system value="urn:oid:2.16.840.1.113883.3.1937.777.24.5.3"/>
                <code value="2.16.840.1.113883.3.1937.777.24.5.3.9"/>
                <display value="MDAT_zusammenfuehren_Dritte"/>
              </coding>
            </code>
          </provision>
          <provision>
            <type value="permit"/>
            <period>
              <start value="2022-12-21T00:00:00+01:00"/>
              <end value="2052-12-21T00:00:00+01:00"/>
            </period>
            <code>
              <coding>
                <system value="https://mii.de/fhir/CodeSystem/gics/Policy/MII"/>
                <code value="Rekontaktierung_Ergebnisse_erheblicher_Bedeutung"/>
                <display value="Rekontaktierung des Betroffenen bei Ergebnissen von erheblicher Bedeutung"/>
              </coding>
            </code>
            <code>
              <coding>
                <system value="urn:oid:2.16.840.1.113883.3.1937.777.24.5.3"/>
                <code value="2.16.840.1.113883.3.1937.777.24.5.3.37"/>
                <display value="Rekontaktierung_Ergebnisse_erheblicher_Bedeutung"/>
              </coding>
            </code>
          </provision>
          <provision>
            <type value="permit"/>
            <period>
              <start value="2022-12-21T00:00:00+01:00"/>
              <end value="2052-12-21T00:00:00+01:00"/>
            </period>
            <code>
              <coding>
                <system value="https://ths-greifswald.de/fhir/CodeSystem/gics/Policy"/>
                <code value="Rekontaktierung_Verknuepfung_Datenbanken"/>
                <display value="Rekontaktierung zur Verknüpfung von Patientendaten mit Daten anderer Datenbanken"/>
              </coding>
            </code>
            <code>
              <coding>
                <system value="urn:oid:2.16.840.1.113883.3.1937.777.24.5.3"/>
                <code value="2.16.840.1.113883.3.1937.777.24.5.3.27"/>
                <display value="Rekontaktierung_Verknuepfung_Datenbanken"/>
              </coding>
            </code>
          </provision>
          <provision>
            <type value="permit"/>
            <period>
              <start value="2022-12-21T00:00:00+01:00"/>
              <end value="2052-12-21T00:00:00+01:00"/>
            </period>
            <code>
              <coding>
                <system value="https://ths-greifswald.de/fhir/CodeSystem/gics/Policy"/>
                <code value="Rekontaktierung_weitere_Erhebung"/>
                <display value="Rekontaktierung bezüglich Erhebung zusätzlicher Daten"/>
              </coding>
            </code>
            <code>
              <coding>
                <system value="urn:oid:2.16.840.1.113883.3.1937.777.24.5.3"/>
                <code value="2.16.840.1.113883.3.1937.777.24.5.3.28"/>
                <display value="Rekontaktierung_weitere_Erhebung"/>
              </coding>
            </code>
          </provision>
          <provision>
            <type value="permit"/>
            <period>
              <start value="2022-12-21T00:00:00+01:00"/>
              <end value="2052-12-21T00:00:00+01:00"/>
            </period>
            <code>
              <coding>
                <system value="https://ths-greifswald.de/fhir/CodeSystem/gics/Policy"/>
                <code value="Rekontaktierung_weitere_Studien"/>
                <display value="Rekontaktierung bezüglich Information zu neuen Forschungsvorhaben oder Studien"/>
              </coding>
            </code>
            <code>
              <coding>
                <system value="urn:oid:2.16.840.1.113883.3.1937.777.24.5.3"/>
                <code value="2.16.840.1.113883.3.1937.777.24.5.3.29"/>
                <display value="Rekontaktierung_weitere_Studien"/>
              </coding>
            </code>
          </provision>
          <provision>
            <type value="permit"/>
            <period>
              <start value="2022-12-21T00:00:00+01:00"/>
              <end value="2052-12-21T00:00:00+01:00"/>
            </period>
            <code>
              <coding>
                <system value="https://mii.de/fhir/CodeSystem/gics/Policy/MII"/>
                <code value="Rekontaktierung_Zusatzbefund"/>
                <display value="Rekontaktierung bezüglich Zusatzbefund im Rahmen der am Standort dafür entwickelten Prozesse und der im Nutzungsantrag angegebenen Bedingungen"/>
              </coding>
            </code>
            <code>
              <coding>
                <system value="urn:oid:2.16.840.1.113883.3.1937.777.24.5.3"/>
                <code value="2.16.840.1.113883.3.1937.777.24.5.3.31"/>
                <display value="Rekontaktierung_Zusatzbefund"/>
              </coding>
            </code>
          </provision>
        </provision>
      </Consent>
    </resource>
  </entry>
  <entry>
    <resource>
      <Provenance>
        <id value="bd56b7e3-336c-49a6-aa31-1987b02f26cf"/>
        <meta>
          <lastUpdated value="2022-12-21T00:00:00.000+01:00"/>
          <profile value="https://ths-greifswald.de/fhir/StructureDefinition/gics/Provenance"/>
          <profile value="http://fhir.de/ConsentManagement/StructureDefinition/Provenance"/>
        </meta>
        <text>
          <status value="generated"/><div xmlns="http://www.w3.org/1999/xhtml"><a name="Provenance_bd56b7e3-336c-49a6-aa31-1987b02f26cf"> </a><p class="res-header-id"><b>Generated Narrative: Provenance bd56b7e3-336c-49a6-aa31-1987b02f26cf</b></p><div style="display: inline-block; background-color: #d9e0e7; padding: 6px; margin: 4px; border: 1px solid #8da1b4; border-radius: 5px; line-height: 60%"><p style="margin-bottom: 0px">Last updated: 2022-12-21 00:00:00+0100</p><p style="margin-bottom: 0px">Profiles: <a href="StructureDefinition-Provenance.html">Herkunftsinformationen und Signatur</a>, <a href="https://simplifier.net/resolve?scope=de.einwilligungsmanagement@2.0.2&amp;canonical=http://fhir.de/ConsentManagement/StructureDefinition/Provenance">Consent Management Provenance</a></p></div><p>Provenance for <a href="Bundle-AddConsent-response-example-1.html#QuestionnaireResponse_bd56b7e3-336c-49a6-aa31-1987b02f26cf">Response to Questionnaire 'https://ths-greifswald.de/fhir/gics/QuestionnaireComposed/MII/Patienteneinwilligung+MII|1.6.d' about '-&gt;Pseudonym studypsn1'</a></p><p>Summary</p><table class="grid"><tr><td>Recorded</td><td>2023-02-28 16:59:47+0100</td></tr></table><p><b>Agents</b></p><table class="grid"><tr><td><b>who</b></td></tr><tr><td>https://ths-greifswald.de/gics</td></tr></table></div>
        </text>
        <target>
          <reference value="QuestionnaireResponse/bd56b7e3-336c-49a6-aa31-1987b02f26cf"/>
        </target>
        <recorded value="2023-02-28T16:59:47.654+01:00"/>
        <agent>
          <who>
            <display value="https://ths-greifswald.de/gics"/>
          </who>
        </agent>
        <entity>
          <role value="source"/>
          <what>
            <reference value="DocumentReference/bf61b464-aea9-48c9-9f6c-38afc3cc78e7"/>
          </what>
        </entity>
        <signature>
          <extension url="http://fhir.de/ConsentManagement/StructureDefinition/SignatureLocation">
            <valueString value="Greifswald"/>
          </extension>
          <type>
            <system value="urn:iso-astm:E1762-95:2013"/>
            <code value="1.2.840.10065.1.12.1.7"/>
            <display value="Consent Signature"/>
          </type>
          <when value="2022-12-21T00:00:00.000+01:00"/>
          <who>
            <reference value="Patient/71e9be08-86ef-4403-9770-fbbfcdd3589c"/>
            <display value="Pseudonym studypsn1"/>
          </who>
          <data>
            <extension url="http://hl7.org/fhir/StructureDefinition/data-absent-reason">
              <valueCode value="error"/>
            </extension>
          </data>
        </signature>
        <signature>
          <extension url="http://fhir.de/ConsentManagement/StructureDefinition/SignatureLocation">
            <valueString value="Greifswald"/>
          </extension>
          <type>
            <system value="urn:iso-astm:E1762-95:2013"/>
            <code value="1.2.840.10065.1.12.1.5"/>
            <display value="Verification Signature"/>
          </type>
          <when value="2022-12-21T00:00:00.000+01:00"/>
          <who>
            <display value="Dr. Stephen Strange"/>
          </who>
          <data>
            <extension url="http://hl7.org/fhir/StructureDefinition/data-absent-reason">
              <valueCode value="error"/>
            </extension>
          </data>
        </signature>
      </Provenance>
    </resource>
  </entry>
  <entry>
    <resource>
      <DocumentReference>
        <id value="bf61b464-aea9-48c9-9f6c-38afc3cc78e7"/>
        <meta>
          <lastUpdated value="2023-02-28T16:59:47.635+01:00"/>
          <profile value="http://fhir.de/ConsentManagement/StructureDefinition/DocumentReference"/>
        </meta>
        <text>
          <status value="generated"/><div xmlns="http://www.w3.org/1999/xhtml"><a name="DocumentReference_bf61b464-aea9-48c9-9f6c-38afc3cc78e7"> </a><p class="res-header-id"><b>Generated Narrative: DocumentReference bf61b464-aea9-48c9-9f6c-38afc3cc78e7</b></p><a name="bf61b464-aea9-48c9-9f6c-38afc3cc78e7"> </a><a name="hcbf61b464-aea9-48c9-9f6c-38afc3cc78e7"> </a><div style="display: inline-block; background-color: #d9e0e7; padding: 6px; margin: 4px; border: 1px solid #8da1b4; border-radius: 5px; line-height: 60%"><p style="margin-bottom: 0px">Last updated: 2023-02-28 16:59:47+0100</p><p style="margin-bottom: 0px">Profile: <a href="https://simplifier.net/resolve?scope=de.einwilligungsmanagement@2.0.2&amp;canonical=http://fhir.de/ConsentManagement/StructureDefinition/DocumentReference">Consent Management DocumentReference</a></p></div><p><b>status</b>: Current</p><p><b>subject</b>: <a href="Bundle-AddConsent-response-example-1.html#Patient_71e9be08-86ef-4403-9770-fbbfcdd3589c">Anonymous Patient (no stated gender), DoB Unknown ( Anonymous identifier: studypsn1)</a></p><p><b>description</b>: scan1.pdf</p><blockquote><p><b>content</b></p><h3>Attachments</h3><table class="grid"><tr><td style="display: none">-</td><td><b>ContentType</b></td><td><b>Data</b></td></tr><tr><td style="display: none">*</td><td>application/pdf</td><td><code>Zm9yIGRlbW8gcHVycG9zZSBvbmx5</code></td></tr></table></blockquote></div>
        </text>
        <status value="current"/>
        <subject>
          <reference value="Patient/71e9be08-86ef-4403-9770-fbbfcdd3589c"/>
          <identifier id="71e9be08-86ef-4403-9770-fbbfcdd3589c">
            <type>
              <coding>
                <system value="http://terminology.hl7.org/CodeSystem/v2-0203"/>
                <code value="ANON"/>
                <display value="Anonymous identifier"/>
              </coding>
            </type>
            <system value="https://ths-greifswald.de/fhir/gics/identifiers/Pseudonym"/>
            <value value="studypsn1"/>
          </identifier>
        </subject>
        <description value="scan1.pdf"/>
        <content>
          <attachment>
            <contentType value="application/pdf"/>
            <data value="Zm9yIGRlbW8gcHVycG9zZSBvbmx5"/>
          </attachment>
        </content>
      </DocumentReference>
    </resource>
  </entry>
  <entry>
    <resource>
      <Patient>
        <id value="71e9be08-86ef-4403-9770-fbbfcdd3589c"/>
        <meta>
          <lastUpdated value="2023-02-28T16:59:47.321+01:00"/>
          <profile value="http://fhir.de/ConsentManagement/StructureDefinition/Patient"/>
        </meta>
        <text>
          <status value="generated"/><div xmlns="http://www.w3.org/1999/xhtml"><a name="Patient_71e9be08-86ef-4403-9770-fbbfcdd3589c"> </a><p class="res-header-id"><b>Generated Narrative: Patient 71e9be08-86ef-4403-9770-fbbfcdd3589c</b></p><a name="71e9be08-86ef-4403-9770-fbbfcdd3589c"> </a><a name="hc71e9be08-86ef-4403-9770-fbbfcdd3589c"> </a><div style="display: inline-block; background-color: #d9e0e7; padding: 6px; margin: 4px; border: 1px solid #8da1b4; border-radius: 5px; line-height: 60%"><p style="margin-bottom: 0px">Last updated: 2023-02-28 16:59:47+0100</p><p style="margin-bottom: 0px">Profile: <a href="https://simplifier.net/resolve?scope=de.einwilligungsmanagement@2.0.2&amp;canonical=http://fhir.de/ConsentManagement/StructureDefinition/Patient">Consent Management: Patient</a></p></div><p style="border: 1px #661aff solid; background-color: #e6e6ff; padding: 10px;">Anonymous Patient (no stated gender), DoB Unknown ( Anonymous identifier: studypsn1)</p><hr/></div>
        </text>
        <identifier id="71e9be08-86ef-4403-9770-fbbfcdd3589c">
          <type>
            <coding>
              <system value="http://terminology.hl7.org/CodeSystem/v2-0203"/>
              <code value="ANON"/>
              <display value="Anonymous identifier"/>
            </coding>
          </type>
          <system value="https://ths-greifswald.de/fhir/gics/identifiers/Pseudonym"/>
          <value value="studypsn1"/>
        </identifier>
      </Patient>
    </resource>
  </entry>
  <entry>
    <resource>
      <VerificationResult>
        <id value="ac53ca2a-4047-49c1-9250-126b2786fab7"/>
        <meta>
          <lastUpdated value="2023-02-28T16:59:47.654+01:00"/>
          <profile value="https://ths-greifswald.de/fhir/StructureDefinition/gics/VerificationResult/ConsentQualityControl"/>
        </meta>
        <text>
          <status value="generated"/><div xmlns="http://www.w3.org/1999/xhtml"><a name="VerificationResult_ac53ca2a-4047-49c1-9250-126b2786fab7"> </a><p class="res-header-id"><b>Generated Narrative: VerificationResult ac53ca2a-4047-49c1-9250-126b2786fab7</b></p><a name="ac53ca2a-4047-49c1-9250-126b2786fab7"> </a><a name="hcac53ca2a-4047-49c1-9250-126b2786fab7"> </a><div style="display: inline-block; background-color: #d9e0e7; padding: 6px; margin: 4px; border: 1px solid #8da1b4; border-radius: 5px; line-height: 60%"><p style="margin-bottom: 0px">Last updated: 2023-02-28 16:59:47+0100</p><p style="margin-bottom: 0px">Profile: <a href="StructureDefinition-ConsentQualityControl.html">Consent Quality Control</a></p></div><p><b>target</b>: <a href="Bundle-AddConsent-response-example-1.html#QuestionnaireResponse_bd56b7e3-336c-49a6-aa31-1987b02f26cf">Response to Questionnaire 'https://ths-greifswald.de/fhir/gics/QuestionnaireComposed/MII/Patienteneinwilligung+MII|1.6.d' about '-&gt;Pseudonym studypsn1'</a></p><p><b>status</b>: Validated</p><p><b>statusDate</b>: 2023-02-28 16:59:47+0100</p><p><b>validationType</b>: <span title="Codes:">not_checked</span></p></div>
        </text>
        <target>
          <reference value="QuestionnaireResponse/bd56b7e3-336c-49a6-aa31-1987b02f26cf"/>
        </target>
        <status value="validated"/>
        <statusDate value="2023-02-28T16:59:47+01:00"/>
        <validationType>
          <text value="not_checked"/>
        </validationType>
      </VerificationResult>
    </resource>
  </entry>
</Bundle>